"","ExperimentName","Subject","Age","Group","Gender","SubTrial","StimulDS1.CRESP","StimulDS1.RESP","StimulDS1.RT","File","accuracy","correct_RT_2.5sd"
"1","dsc","10",26,1,"female",1,"m","m",1837,"right000",1,1837
"2","dsc","10",26,1,"female",2,"z","z",1175,"wrong000",1,1175
"3","dsc","10",26,1,"female",3,"z","z",1308,"wrong000",1,1308
"4","dsc","10",26,1,"female",4,"m","m",1051,"right000",1,1051
"5","dsc","10",26,1,"female",5,"m","z",956,"right000",0,956
"6","dsc","10",26,1,"female",6,"z","z",1689,"wrong000",1,1689
"7","dsc","10",26,1,"female",7,"m","m",993,"right000",1,993
"8","dsc","10",26,1,"female",8,"m","m",901,"right000",1,901
"9","dsc","10",26,1,"female",9,"m","m",1340,"right000",1,1340
"10","dsc","10",26,1,"female",10,"m","m",1186,"right000",1,1186
"11","dsc","10",26,1,"female",11,"z","z",1062,"wrong000",1,1062
"12","dsc","10",26,1,"female",12,"m","m",1007,"right000",1,1007
"13","dsc","10",26,1,"female",13,"z","z",1394,"wrong000",1,1394
"14","dsc","10",26,1,"female",14,"z","z",1270,"wrong000",1,1270
"15","dsc","10",26,1,"female",15,"z","z",1143,"wrong000",1,1143
"16","dsc","10",26,1,"female",16,"z","z",1013,"wrong000",1,1013
"17","dsc","10",26,1,"female",17,"z","z",976,"wrong000",1,976
"18","dsc","10",26,1,"female",18,"z","z",844,"wrong000",1,844
"19","dsc","10",26,1,"female",19,"m","m",1302,"right000",1,1302
"20","dsc","10",26,1,"female",20,"z","z",973,"wrong000",1,973
"21","dsc","10",26,1,"female",21,"z","z",970,"wrong000",1,970
"22","dsc","10",26,1,"female",22,"m","m",846,"right000",1,846
"23","dsc","10",26,1,"female",23,"m","m",952,"right000",1,952
"24","dsc","10",26,1,"female",24,"m","m",933,"right000",1,933
"25","dsc","10",26,1,"female",25,"z","z",794,"wrong000",1,794
"26","dsc","10",26,1,"female",26,"z","z",1142,"wrong000",1,1142
"27","dsc","10",26,1,"female",27,"z","z",1035,"wrong000",1,1035
"28","dsc","10",26,1,"female",28,"m","m",1285,"right000",1,1285
"29","dsc","10",26,1,"female",29,"m","z",925,"wrong000",0,925
"30","dsc","10",26,1,"female",30,"z","z",956,"wrong000",1,956
"31","dsc","10",26,1,"female",31,"m","m",1009,"right000",1,1009
"32","dsc","10",26,1,"female",32,"m","m",948,"right000",1,948
"33","dsc","10",26,1,"female",33,"m","m",897,"right000",1,897
"34","dsc","10",26,1,"female",34,"z","z",832,"wrong000",1,832
"35","dsc","10",26,1,"female",35,"z","z",770,"wrong000",1,770
"36","dsc","10",26,1,"female",36,"z","z",894,"wrong000",1,894
"37","dsc","10",26,1,"female",37,"m","z",910,"right000",0,910
"38","dsc","10",26,1,"female",38,"z","z",917,"wrong000",1,917
"39","dsc","10",26,1,"female",39,"m","m",1035,"right000",1,1035
"40","dsc","10",26,1,"female",40,"m","m",941,"right000",1,941
"41","dsc","10",26,1,"female",41,"z","z",1187,"wrong000",1,1187
"42","dsc","10",26,1,"female",42,"z","m",911,"wrong000",0,911
"43","dsc","10",26,1,"female",43,"m","m",1206,"right000",1,1206
"44","dsc","10",26,1,"female",44,"m","m",985,"right000",1,985
"45","dsc","10",26,1,"female",45,"z","z",757,"wrong000",1,757
"46","dsc","10",26,1,"female",46,"m","m",1050,"right000",1,1050
"47","dsc","10",26,1,"female",47,"m","m",1107,"right000",1,1107
"48","dsc","10",26,1,"female",48,"z","z",858,"wrong000",1,858
"49","dsc","10",26,1,"female",49,"m","m",1051,"right000",1,1051
"50","dsc","10",26,1,"female",50,"m","m",837,"right000",1,837
"51","dsc","10",26,1,"female",51,"z","z",1510,"wrong000",1,1510
"52","dsc","10",26,1,"female",52,"z","z",782,"wrong000",1,782
"53","dsc","10",26,1,"female",53,"z","z",873,"wrong000",1,873
"54","dsc","10",26,1,"female",54,"z","z",914,"wrong000",1,914
"55","dsc","10",26,1,"female",55,"m","m",1112,"right000",1,1112
"56","dsc","10",26,1,"female",56,"z","z",983,"wrong000",1,983
"57","dsc","10",26,1,"female",57,"z","z",915,"wrong000",1,915
"58","dsc","10",26,1,"female",58,"m","m",882,"right000",1,882
"59","dsc","10",26,1,"female",59,"m","m",905,"right000",1,905
"60","dsc","10",26,1,"female",60,"m","m",1008,"right000",1,1008
"61","dsc","10",26,1,"female",61,"m","m",956,"right000",1,956
"62","dsc","10",26,1,"female",62,"z","z",785,"wrong000",1,785
"63","dsc","10",26,1,"female",63,"m","m",780,"right000",1,780
"64","dsc","10",26,1,"female",64,"z","z",880,"wrong000",1,880
"65","dsc","10",26,1,"female",65,"m","m",817,"right000",1,817
"66","dsc","10",26,1,"female",66,"m","m",787,"right000",1,787
"67","dsc","10",26,1,"female",67,"m","m",799,"right000",1,799
"68","dsc","10",26,1,"female",68,"z","z",1458,"wrong000",1,1458
"69","dsc","10",26,1,"female",69,"z","z",923,"wrong000",1,923
"70","dsc","10",26,1,"female",70,"z","z",801,"wrong000",1,801
"71","dsc","10",26,1,"female",71,"z","z",829,"wrong000",1,829
"72","dsc","10",26,1,"female",72,"m","m",807,"right000",1,807
"73","dsc","10",26,1,"female",73,"m","m",738,"right000",1,738
"74","dsc","10",26,1,"female",74,"m","m",1064,"right000",1,1064
"75","dsc","10",26,1,"female",75,"z","z",784,"wrong000",1,784
"76","dsc","10",26,1,"female",76,"z","z",1012,"wrong000",1,1012
"77","dsc","10",26,1,"female",77,"m","m",823,"right000",1,823
"78","dsc","10",26,1,"female",78,"z","m",953,"wrong000",0,953
"79","dsc","10",26,1,"female",79,"m","m",879,"right000",1,879
"80","dsc","10",26,1,"female",80,"z","z",783,"wrong000",1,783
"81","dsc","10",26,1,"female",81,"z","z",771,"wrong000",1,771
"82","dsc","10",26,1,"female",82,"m","m",1127,"right000",1,1127
"83","dsc","10",26,1,"female",83,"m","m",1246,"right000",1,1246
"84","dsc","10",26,1,"female",84,"z","z",720,"wrong000",1,720
"85","dsc","10",26,1,"female",85,"z","z",758,"wrong000",1,758
"86","dsc","10",26,1,"female",86,"m","m",770,"right000",1,770
"87","dsc","10",26,1,"female",87,"m","m",918,"right000",1,918
"88","dsc","10",26,1,"female",88,"z","z",853,"wrong000",1,853
"89","dsc","10",26,1,"female",89,"m","m",958,"right000",1,958
"90","dsc","10",26,1,"female",90,"m","m",1067,"right000",1,1067
"91","dsc","11",26,1,"female",1,"m","m",1578,"right000",1,1578
"92","dsc","11",26,1,"female",2,"m","m",1783,"right000",1,1783
"93","dsc","11",26,1,"female",3,"z","z",1747,"wrong000",1,1747
"94","dsc","11",26,1,"female",4,"m","m",1432,"right000",1,1432
"95","dsc","11",26,1,"female",5,"m","m",970,"right000",1,970
"96","dsc","11",26,1,"female",6,"z","z",1303,"wrong000",1,1303
"97","dsc","11",26,1,"female",7,"m","z",1582,"right000",0,1582
"98","dsc","11",26,1,"female",8,"z","z",1530,"wrong000",1,1530
"99","dsc","11",26,1,"female",9,"m","m",976,"right000",1,976
"100","dsc","11",26,1,"female",10,"m","m",804,"right000",1,804
"101","dsc","11",26,1,"female",11,"z","z",999,"wrong000",1,999
"102","dsc","11",26,1,"female",12,"m","m",2426,"right000",1,2426
"103","dsc","11",26,1,"female",13,"z","z",1357,"wrong000",1,1357
"104","dsc","11",26,1,"female",14,"m","m",939,"right000",1,939
"105","dsc","11",26,1,"female",15,"z","z",1056,"wrong000",1,1056
"106","dsc","11",26,1,"female",16,"m","m",642,"right000",1,642
"107","dsc","11",26,1,"female",17,"m","m",835,"right000",1,835
"108","dsc","11",26,1,"female",18,"m","m",933,"right000",1,933
"109","dsc","11",26,1,"female",19,"z","z",1811,"wrong000",1,1811
"110","dsc","11",26,1,"female",20,"z","z",854,"wrong000",1,854
"111","dsc","11",26,1,"female",21,"m","m",775,"right000",1,775
"112","dsc","11",26,1,"female",22,"z","z",1084,"wrong000",1,1084
"113","dsc","11",26,1,"female",23,"m","m",924,"right000",1,924
"114","dsc","11",26,1,"female",24,"z","z",658,"wrong000",1,658
"115","dsc","11",26,1,"female",25,"m","m",763,"right000",1,763
"116","dsc","11",26,1,"female",26,"m","m",1344,"right000",1,1344
"117","dsc","11",26,1,"female",27,"m","m",542,"right000",1,542
"118","dsc","11",26,1,"female",28,"z","z",1092,"wrong000",1,1092
"119","dsc","11",26,1,"female",29,"m","m",756,"right000",1,756
"120","dsc","11",26,1,"female",30,"m","m",833,"right000",1,833
"121","dsc","11",26,1,"female",31,"m","m",785,"right000",1,785
"122","dsc","11",26,1,"female",32,"m","m",1173,"right000",1,1173
"123","dsc","11",26,1,"female",33,"m","m",794,"right000",1,794
"124","dsc","11",26,1,"female",34,"z","z",845,"wrong000",1,845
"125","dsc","11",26,1,"female",35,"z","z",1255,"wrong000",1,1255
"126","dsc","11",26,1,"female",36,"m","m",680,"right000",1,680
"127","dsc","11",26,1,"female",37,"z","z",1560,"wrong000",1,1560
"128","dsc","11",26,1,"female",38,"z","m",1221,"wrong000",0,1221
"129","dsc","11",26,1,"female",39,"z","z",1456,"wrong000",1,1456
"130","dsc","11",26,1,"female",40,"z","z",2409,"wrong000",1,2409
"131","dsc","11",26,1,"female",41,"z","z",1405,"wrong000",1,1405
"132","dsc","11",26,1,"female",42,"z","z",1320,"wrong000",1,1320
"133","dsc","11",26,1,"female",43,"m","m",663,"right000",1,663
"134","dsc","11",26,1,"female",44,"z","z",840,"wrong000",1,840
"135","dsc","11",26,1,"female",45,"z","z",1041,"wrong000",1,1041
"136","dsc","11",26,1,"female",46,"z","z",1307,"wrong000",1,1307
"137","dsc","11",26,1,"female",47,"z","z",827,"wrong000",1,827
"138","dsc","11",26,1,"female",48,"z","z",893,"wrong000",1,893
"139","dsc","11",26,1,"female",49,"m","m",861,"right000",1,861
"140","dsc","11",26,1,"female",50,"m","m",766,"right000",1,766
"141","dsc","11",26,1,"female",51,"z","z",1034,"wrong000",1,1034
"142","dsc","11",26,1,"female",52,"m","m",900,"right000",1,900
"143","dsc","11",26,1,"female",53,"m","m",971,"right000",1,971
"144","dsc","11",26,1,"female",54,"m","m",584,"right000",1,584
"145","dsc","11",26,1,"female",55,"z","z",747,"wrong000",1,747
"146","dsc","11",26,1,"female",56,"z","z",1536,"wrong000",1,1536
"147","dsc","11",26,1,"female",57,"m","m",870,"right000",1,870
"148","dsc","11",26,1,"female",58,"z","z",1119,"wrong000",1,1119
"149","dsc","11",26,1,"female",59,"m","m",773,"wrong000",1,773
"150","dsc","11",26,1,"female",60,"z","z",1634,"wrong000",1,1634
"151","dsc","11",26,1,"female",61,"m","m",884,"right000",1,884
"152","dsc","11",26,1,"female",62,"z","z",1156,"wrong000",1,1156
"153","dsc","11",26,1,"female",63,"z","z",784,"wrong000",1,784
"154","dsc","11",26,1,"female",64,"m","m",667,"right000",1,667
"155","dsc","11",26,1,"female",65,"m","m",788,"right000",1,788
"156","dsc","11",26,1,"female",66,"z","m",976,"wrong000",0,976
"157","dsc","11",26,1,"female",67,"z","z",2516,"wrong000",1,NA
"158","dsc","11",26,1,"female",68,"m","m",819,"right000",1,819
"159","dsc","11",26,1,"female",69,"m","m",1085,"right000",1,1085
"160","dsc","11",26,1,"female",70,"z","m",709,"wrong000",0,709
"161","dsc","11",26,1,"female",71,"z","m",820,"wrong000",0,820
"162","dsc","11",26,1,"female",72,"z","m",815,"wrong000",0,815
"163","dsc","11",26,1,"female",73,"z","z",1481,"wrong000",1,1481
"164","dsc","11",26,1,"female",74,"m","m",1185,"right000",1,1185
"165","dsc","11",26,1,"female",75,"m","m",797,"right000",1,797
"166","dsc","11",26,1,"female",76,"m","m",1072,"right000",1,1072
"167","dsc","11",26,1,"female",77,"z","z",1953,"wrong000",1,1953
"168","dsc","11",26,1,"female",78,"m","m",2486,"right000",1,NA
"169","dsc","11",26,1,"female",79,"m","m",814,"right000",1,814
"170","dsc","11",26,1,"female",80,"m","m",761,"right000",1,761
"171","dsc","11",26,1,"female",81,"z","z",1086,"wrong000",1,1086
"172","dsc","11",26,1,"female",82,"m","m",1030,"right000",1,1030
"173","dsc","11",26,1,"female",83,"z","z",1248,"wrong000",1,1248
"174","dsc","11",26,1,"female",84,"m","m",713,"right000",1,713
"175","dsc","11",26,1,"female",85,"z","z",808,"wrong000",1,808
"176","dsc","11",26,1,"female",86,"z","z",1411,"wrong000",1,1411
"177","dsc","11",26,1,"female",87,"m","m",679,"right000",1,679
"178","dsc","11",26,1,"female",88,"m","m",1007,"right000",1,1007
"179","dsc","11",26,1,"female",89,"z","z",570,"wrong000",1,570
"180","dsc","11",26,1,"female",90,"z","z",935,"wrong000",1,935
"181","dsc","12",27,1,"female",1,"z","m",1774,"wrong000",0,1774
"182","dsc","12",27,1,"female",2,"m","m",2243,"right000",1,2243
"183","dsc","12",27,1,"female",3,"m","m",1581,"right000",1,1581
"184","dsc","12",27,1,"female",4,"z","z",785,"wrong000",1,785
"185","dsc","12",27,1,"female",5,"z","z",837,"wrong000",1,837
"186","dsc","12",27,1,"female",6,"z","z",679,"wrong000",1,679
"187","dsc","12",27,1,"female",7,"z","m",743,"wrong000",0,743
"188","dsc","12",27,1,"female",8,"z","m",1485,"wrong000",0,1485
"189","dsc","12",27,1,"female",9,"z","z",1517,"wrong000",1,1517
"190","dsc","12",27,1,"female",10,"z","z",763,"wrong000",1,763
"191","dsc","12",27,1,"female",11,"m","m",872,"right000",1,872
"192","dsc","12",27,1,"female",12,"m","m",1257,"right000",1,1257
"193","dsc","12",27,1,"female",13,"m","m",898,"right000",1,898
"194","dsc","12",27,1,"female",14,"m","m",801,"right000",1,801
"195","dsc","12",27,1,"female",15,"m","m",724,"right000",1,724
"196","dsc","12",27,1,"female",16,"m","m",682,"right000",1,682
"197","dsc","12",27,1,"female",17,"m","m",770,"right000",1,770
"198","dsc","12",27,1,"female",18,"z","z",958,"wrong000",1,958
"199","dsc","12",27,1,"female",19,"z","z",1036,"wrong000",1,1036
"200","dsc","12",27,1,"female",20,"z","z",589,"wrong000",1,589
"201","dsc","12",27,1,"female",21,"z","z",753,"wrong000",1,753
"202","dsc","12",27,1,"female",22,"z","z",950,"wrong000",1,950
"203","dsc","12",27,1,"female",23,"z","z",771,"wrong000",1,771
"204","dsc","12",27,1,"female",24,"m","m",752,"right000",1,752
"205","dsc","12",27,1,"female",25,"z","z",829,"wrong000",1,829
"206","dsc","12",27,1,"female",26,"m","z",727,"right000",0,727
"207","dsc","12",27,1,"female",27,"m","m",1309,"right000",1,1309
"208","dsc","12",27,1,"female",28,"m","m",965,"right000",1,965
"209","dsc","12",27,1,"female",29,"m","m",785,"right000",1,785
"210","dsc","12",27,1,"female",30,"m","m",773,"right000",1,773
"211","dsc","12",27,1,"female",31,"m","z",689,"wrong000",0,689
"212","dsc","12",27,1,"female",32,"m","m",913,"right000",1,913
"213","dsc","12",27,1,"female",33,"z","m",880,"wrong000",0,880
"214","dsc","12",27,1,"female",34,"m","m",832,"right000",1,832
"215","dsc","12",27,1,"female",35,"z","z",1466,"wrong000",1,1466
"216","dsc","12",27,1,"female",36,"m","m",787,"right000",1,787
"217","dsc","12",27,1,"female",37,"z","z",958,"wrong000",1,958
"218","dsc","12",27,1,"female",38,"z","z",675,"wrong000",1,675
"219","dsc","12",27,1,"female",39,"z","z",1068,"wrong000",1,1068
"220","dsc","12",27,1,"female",40,"z","z",756,"wrong000",1,756
"221","dsc","12",27,1,"female",41,"m","m",769,"right000",1,769
"222","dsc","12",27,1,"female",42,"z","z",654,"wrong000",1,654
"223","dsc","12",27,1,"female",43,"m","m",855,"right000",1,855
"224","dsc","12",27,1,"female",44,"z","z",816,"wrong000",1,816
"225","dsc","12",27,1,"female",45,"m","m",930,"right000",1,930
"226","dsc","12",27,1,"female",46,"z","z",1392,"wrong000",1,1392
"227","dsc","12",27,1,"female",47,"m","m",1108,"right000",1,1108
"228","dsc","12",27,1,"female",48,"m","m",1475,"right000",1,1475
"229","dsc","12",27,1,"female",49,"m","m",1212,"right000",1,1212
"230","dsc","12",27,1,"female",50,"m","m",855,"right000",1,855
"231","dsc","12",27,1,"female",51,"m","m",592,"right000",1,592
"232","dsc","12",27,1,"female",52,"z","z",652,"wrong000",1,652
"233","dsc","12",27,1,"female",53,"m","m",629,"right000",1,629
"234","dsc","12",27,1,"female",54,"m","m",1015,"right000",1,1015
"235","dsc","12",27,1,"female",55,"z","z",809,"wrong000",1,809
"236","dsc","12",27,1,"female",56,"z","m",1124,"wrong000",0,1124
"237","dsc","12",27,1,"female",57,"z","z",1443,"wrong000",1,1443
"238","dsc","12",27,1,"female",58,"m","m",821,"right000",1,821
"239","dsc","12",27,1,"female",59,"z","z",1647,"wrong000",1,1647
"240","dsc","12",27,1,"female",60,"z","z",873,"wrong000",1,873
"241","dsc","12",27,1,"female",61,"z","z",745,"wrong000",1,745
"242","dsc","12",27,1,"female",62,"m","m",695,"right000",1,695
"243","dsc","12",27,1,"female",63,"z","z",1062,"wrong000",1,1062
"244","dsc","12",27,1,"female",64,"z","z",703,"wrong000",1,703
"245","dsc","12",27,1,"female",65,"z","z",783,"wrong000",1,783
"246","dsc","12",27,1,"female",66,"z","z",850,"wrong000",1,850
"247","dsc","12",27,1,"female",67,"z","z",707,"wrong000",1,707
"248","dsc","12",27,1,"female",68,"z","z",1114,"wrong000",1,1114
"249","dsc","12",27,1,"female",69,"m","z",841,"right000",0,841
"250","dsc","12",27,1,"female",70,"z","z",787,"wrong000",1,787
"251","dsc","12",27,1,"female",71,"m","m",750,"right000",1,750
"252","dsc","12",27,1,"female",72,"m","m",835,"right000",1,835
"253","dsc","12",27,1,"female",73,"z","z",669,"wrong000",1,669
"254","dsc","12",27,1,"female",74,"z","z",925,"wrong000",1,925
"255","dsc","12",27,1,"female",75,"m","m",884,"right000",1,884
"256","dsc","12",27,1,"female",76,"z","z",908,"wrong000",1,908
"257","dsc","12",27,1,"female",77,"m","m",907,"right000",1,907
"258","dsc","12",27,1,"female",78,"m","m",1082,"right000",1,1082
"259","dsc","12",27,1,"female",79,"z","z",746,"wrong000",1,746
"260","dsc","12",27,1,"female",80,"m","m",887,"right000",1,887
"261","dsc","12",27,1,"female",81,"m","m",751,"right000",1,751
"262","dsc","12",27,1,"female",82,"z","z",668,"wrong000",1,668
"263","dsc","12",27,1,"female",83,"m","z",668,"right000",0,668
"264","dsc","12",27,1,"female",84,"m","m",565,"right000",1,565
"265","dsc","12",27,1,"female",85,"z","z",1233,"wrong000",1,1233
"266","dsc","12",27,1,"female",86,"m","m",1251,"right000",1,1251
"267","dsc","12",27,1,"female",87,"m","m",1116,"right000",1,1116
"268","dsc","12",27,1,"female",88,"m","m",859,"right000",1,859
"269","dsc","12",27,1,"female",89,"m","m",716,"right000",1,716
"270","dsc","12",27,1,"female",90,"m","m",634,"right000",1,634
"271","dsc","13",24,1,"female",1,"z","z",2515,"wrong000",1,NA
"272","dsc","13",24,1,"female",2,"m","m",1546,"right000",1,1546
"273","dsc","13",24,1,"female",3,"z","z",1464,"wrong000",1,1464
"274","dsc","13",24,1,"female",4,"z","z",1192,"wrong000",1,1192
"275","dsc","13",24,1,"female",5,"m","m",1100,"right000",1,1100
"276","dsc","13",24,1,"female",6,"z","z",2123,"wrong000",1,2123
"277","dsc","13",24,1,"female",7,"m","m",1034,"right000",1,1034
"278","dsc","13",24,1,"female",8,"m","m",628,"right000",1,628
"279","dsc","13",24,1,"female",9,"m","m",1126,"right000",1,1126
"280","dsc","13",24,1,"female",10,"z","z",1029,"wrong000",1,1029
"281","dsc","13",24,1,"female",11,"m","m",1247,"right000",1,1247
"282","dsc","13",24,1,"female",12,"m","m",1665,"right000",1,1665
"283","dsc","13",24,1,"female",13,"z","z",1305,"wrong000",1,1305
"284","dsc","13",24,1,"female",14,"m","m",1000,"right000",1,1000
"285","dsc","13",24,1,"female",15,"z","z",1028,"wrong000",1,1028
"286","dsc","13",24,1,"female",16,"m","m",1414,"right000",1,1414
"287","dsc","13",24,1,"female",17,"z","z",2001,"wrong000",1,2001
"288","dsc","13",24,1,"female",18,"m","m",940,"right000",1,940
"289","dsc","13",24,1,"female",19,"m","m",842,"right000",1,842
"290","dsc","13",24,1,"female",20,"m","m",844,"right000",1,844
"291","dsc","13",24,1,"female",21,"z","z",757,"wrong000",1,757
"292","dsc","13",24,1,"female",22,"z","z",1538,"wrong000",1,1538
"293","dsc","13",24,1,"female",23,"m","z",1144,"wrong000",0,1144
"294","dsc","13",24,1,"female",24,"m","m",1262,"right000",1,1262
"295","dsc","13",24,1,"female",25,"m","m",1215,"right000",1,1215
"296","dsc","13",24,1,"female",26,"m","m",978,"right000",1,978
"297","dsc","13",24,1,"female",27,"z","z",1638,"wrong000",1,1638
"298","dsc","13",24,1,"female",28,"m","m",856,"right000",1,856
"299","dsc","13",24,1,"female",29,"m","m",1081,"right000",1,1081
"300","dsc","13",24,1,"female",30,"z","z",1049,"wrong000",1,1049
"301","dsc","13",24,1,"female",31,"m","m",770,"right000",1,770
"302","dsc","13",24,1,"female",32,"z","z",855,"wrong000",1,855
"303","dsc","13",24,1,"female",33,"z","z",1392,"wrong000",1,1392
"304","dsc","13",24,1,"female",34,"m","m",1387,"right000",1,1387
"305","dsc","13",24,1,"female",35,"m","m",1295,"right000",1,1295
"306","dsc","13",24,1,"female",36,"z","z",1134,"wrong000",1,1134
"307","dsc","13",24,1,"female",37,"z","z",1532,"wrong000",1,1532
"308","dsc","13",24,1,"female",38,"m","m",1002,"right000",1,1002
"309","dsc","13",24,1,"female",39,"z","z",917,"wrong000",1,917
"310","dsc","13",24,1,"female",40,"m","m",956,"right000",1,956
"311","dsc","13",24,1,"female",41,"z","z",1593,"wrong000",1,1593
"312","dsc","13",24,1,"female",42,"m","m",933,"right000",1,933
"313","dsc","13",24,1,"female",43,"m","m",803,"right000",1,803
"314","dsc","13",24,1,"female",44,"m","m",966,"right000",1,966
"315","dsc","13",24,1,"female",45,"z","z",946,"wrong000",1,946
"316","dsc","13",24,1,"female",46,"m","m",1168,"right000",1,1168
"317","dsc","13",24,1,"female",47,"z","z",1205,"wrong000",1,1205
"318","dsc","13",24,1,"female",48,"m","m",856,"right000",1,856
"319","dsc","13",24,1,"female",49,"z","z",1049,"wrong000",1,1049
"320","dsc","13",24,1,"female",50,"z","z",1010,"wrong000",1,1010
"321","dsc","13",24,1,"female",51,"z","z",965,"wrong000",1,965
"322","dsc","13",24,1,"female",52,"m","m",922,"right000",1,922
"323","dsc","13",24,1,"female",53,"z","z",1032,"wrong000",1,1032
"324","dsc","13",24,1,"female",54,"z","z",954,"wrong000",1,954
"325","dsc","13",24,1,"female",55,"m","m",983,"right000",1,983
"326","dsc","13",24,1,"female",56,"z","z",1075,"wrong000",1,1075
"327","dsc","13",24,1,"female",57,"z","z",1827,"wrong000",1,1827
"328","dsc","13",24,1,"female",58,"z","z",1302,"wrong000",1,1302
"329","dsc","13",24,1,"female",59,"z","z",1229,"wrong000",1,1229
"330","dsc","13",24,1,"female",60,"m","m",1472,"right000",1,1472
"331","dsc","13",24,1,"female",61,"m","m",1040,"right000",1,1040
"332","dsc","13",24,1,"female",62,"m","m",762,"right000",1,762
"333","dsc","13",24,1,"female",63,"z","z",695,"wrong000",1,695
"334","dsc","13",24,1,"female",64,"m","m",807,"right000",1,807
"335","dsc","13",24,1,"female",65,"m","m",1058,"right000",1,1058
"336","dsc","13",24,1,"female",66,"m","m",923,"right000",1,923
"337","dsc","13",24,1,"female",67,"z","z",937,"wrong000",1,937
"338","dsc","13",24,1,"female",68,"z","m",1311,"wrong000",0,1311
"339","dsc","13",24,1,"female",69,"m","m",1318,"right000",1,1318
"340","dsc","13",24,1,"female",70,"m","m",949,"right000",1,949
"341","dsc","13",24,1,"female",71,"z","z",1346,"wrong000",1,1346
"342","dsc","13",24,1,"female",72,"z","z",1224,"wrong000",1,1224
"343","dsc","13",24,1,"female",73,"m","m",1194,"right000",1,1194
"344","dsc","13",24,1,"female",74,"z","z",1206,"wrong000",1,1206
"345","dsc","13",24,1,"female",75,"m","m",1114,"right000",1,1114
"346","dsc","13",24,1,"female",76,"m","m",904,"right000",1,904
"347","dsc","13",24,1,"female",77,"z","z",1215,"wrong000",1,1215
"348","dsc","13",24,1,"female",78,"z","z",1138,"wrong000",1,1138
"349","dsc","13",24,1,"female",79,"z","z",1375,"wrong000",1,1375
"350","dsc","13",24,1,"female",80,"z","z",724,"wrong000",1,724
"351","dsc","13",24,1,"female",81,"z","z",754,"wrong000",1,754
"352","dsc","13",24,1,"female",82,"m","m",887,"right000",1,887
"353","dsc","13",24,1,"female",83,"z","z",735,"wrong000",1,735
"354","dsc","13",24,1,"female",84,"z","z",589,"wrong000",1,589
"355","dsc","13",24,1,"female",85,"m","m",1009,"right000",1,1009
"356","dsc","13",24,1,"female",86,"m","m",804,"right000",1,804
"357","dsc","13",24,1,"female",87,"m","m",1151,"right000",1,1151
"358","dsc","13",24,1,"female",88,"z","z",844,"wrong000",1,844
"359","dsc","13",24,1,"female",89,"z","z",1694,"wrong000",1,1694
"360","dsc","13",24,1,"female",90,"m","m",958,"right000",1,958
"361","dsc","14",24,1,"female",1,"z","z",1272,"wrong000",1,1272
"362","dsc","14",24,1,"female",2,"z","z",1736,"wrong000",1,1736
"363","dsc","14",24,1,"female",3,"z","z",1318,"wrong000",1,1318
"364","dsc","14",24,1,"female",4,"z","z",949,"wrong000",1,949
"365","dsc","14",24,1,"female",5,"m","m",1178,"right000",1,1178
"366","dsc","14",24,1,"female",6,"m","m",1519,"right000",1,1519
"367","dsc","14",24,1,"female",7,"z","z",1157,"wrong000",1,1157
"368","dsc","14",24,1,"female",8,"m","m",1626,"right000",1,1626
"369","dsc","14",24,1,"female",9,"m","m",1669,"right000",1,1669
"370","dsc","14",24,1,"female",10,"z","z",1518,"wrong000",1,1518
"371","dsc","14",24,1,"female",11,"m","m",1204,"right000",1,1204
"372","dsc","14",24,1,"female",12,"z","z",1440,"wrong000",1,1440
"373","dsc","14",24,1,"female",13,"z","z",1250,"wrong000",1,1250
"374","dsc","14",24,1,"female",14,"z","z",1219,"wrong000",1,1219
"375","dsc","14",24,1,"female",15,"z","z",1413,"wrong000",1,1413
"376","dsc","14",24,1,"female",16,"z","z",1057,"wrong000",1,1057
"377","dsc","14",24,1,"female",17,"z","z",1210,"wrong000",1,1210
"378","dsc","14",24,1,"female",18,"z","z",861,"wrong000",1,861
"379","dsc","14",24,1,"female",19,"z","z",1310,"wrong000",1,1310
"380","dsc","14",24,1,"female",20,"z","z",1181,"wrong000",1,1181
"381","dsc","14",24,1,"female",21,"z","z",928,"wrong000",1,928
"382","dsc","14",24,1,"female",22,"m","m",1430,"right000",1,1430
"383","dsc","14",24,1,"female",23,"m","m",1360,"right000",1,1360
"384","dsc","14",24,1,"female",24,"z","z",1262,"wrong000",1,1262
"385","dsc","14",24,1,"female",25,"m","m",1303,"right000",1,1303
"386","dsc","14",24,1,"female",26,"z","z",1503,"wrong000",1,1503
"387","dsc","14",24,1,"female",27,"m","m",1197,"right000",1,1197
"388","dsc","14",24,1,"female",28,"z","z",1081,"wrong000",1,1081
"389","dsc","14",24,1,"female",29,"m","m",1272,"right000",1,1272
"390","dsc","14",24,1,"female",30,"m","m",1449,"right000",1,1449
"391","dsc","14",24,1,"female",31,"z","z",1914,"wrong000",1,1914
"392","dsc","14",24,1,"female",32,"m","m",1537,"right000",1,1537
"393","dsc","14",24,1,"female",33,"z","z",2087,"wrong000",1,2087
"394","dsc","14",24,1,"female",34,"m","m",855,"right000",1,855
"395","dsc","14",24,1,"female",35,"z","z",992,"wrong000",1,992
"396","dsc","14",24,1,"female",36,"m","m",860,"right000",1,860
"397","dsc","14",24,1,"female",37,"m","m",973,"right000",1,973
"398","dsc","14",24,1,"female",38,"z","z",1185,"wrong000",1,1185
"399","dsc","14",24,1,"female",39,"m","m",1269,"right000",1,1269
"400","dsc","14",24,1,"female",40,"m","m",1862,"right000",1,1862
"401","dsc","14",24,1,"female",41,"m","m",1071,"right000",1,1071
"402","dsc","14",24,1,"female",42,"m","m",920,"right000",1,920
"403","dsc","14",24,1,"female",43,"z","m",1126,"wrong000",0,1126
"404","dsc","14",24,1,"female",44,"z","z",1589,"wrong000",1,1589
"405","dsc","14",24,1,"female",45,"m","m",1497,"right000",1,1497
"406","dsc","14",24,1,"female",46,"m","m",1113,"right000",1,1113
"407","dsc","14",24,1,"female",47,"m","m",808,"right000",1,808
"408","dsc","14",24,1,"female",48,"m","m",1411,"right000",1,1411
"409","dsc","14",24,1,"female",49,"z","z",1086,"wrong000",1,1086
"410","dsc","14",24,1,"female",50,"z","z",1822,"wrong000",1,1822
"411","dsc","14",24,1,"female",51,"z","z",1761,"wrong000",1,1761
"412","dsc","14",24,1,"female",52,"m","m",1054,"right000",1,1054
"413","dsc","14",24,1,"female",53,"z","z",1255,"wrong000",1,1255
"414","dsc","14",24,1,"female",54,"z","z",1040,"wrong000",1,1040
"415","dsc","14",24,1,"female",55,"z","z",1738,"wrong000",1,1738
"416","dsc","14",24,1,"female",56,"m","z",952,"right000",0,952
"417","dsc","14",24,1,"female",57,"m","m",1037,"right000",1,1037
"418","dsc","14",24,1,"female",58,"z","m",1015,"wrong000",0,1015
"419","dsc","14",24,1,"female",59,"m","m",1874,"right000",1,1874
"420","dsc","14",24,1,"female",60,"m","m",1218,"right000",1,1218
"421","dsc","14",24,1,"female",61,"m","m",941,"right000",1,941
"422","dsc","14",24,1,"female",62,"m","m",939,"right000",1,939
"423","dsc","14",24,1,"female",63,"m","m",1152,"right000",1,1152
"424","dsc","14",24,1,"female",64,"z","z",1782,"wrong000",1,1782
"425","dsc","14",24,1,"female",65,"m","m",1506,"right000",1,1506
"426","dsc","14",24,1,"female",66,"m","m",1001,"right000",1,1001
"427","dsc","14",24,1,"female",67,"z","z",1276,"wrong000",1,1276
"428","dsc","14",24,1,"female",68,"z","z",3484,"wrong000",1,NA
"429","dsc","14",24,1,"female",69,"z","z",1221,"wrong000",1,1221
"430","dsc","14",24,1,"female",70,"m","z",695,"right000",0,695
"431","dsc","14",24,1,"female",71,"z","z",1382,"wrong000",1,1382
"432","dsc","14",24,1,"female",72,"m","m",1554,"right000",1,1554
"433","dsc","14",24,1,"female",73,"z","z",1119,"wrong000",1,1119
"434","dsc","14",24,1,"female",74,"z","z",973,"wrong000",1,973
"435","dsc","14",24,1,"female",75,"z","z",746,"wrong000",1,746
"436","dsc","14",24,1,"female",76,"z","z",1184,"wrong000",1,1184
"437","dsc","14",24,1,"female",77,"z","z",899,"wrong000",1,899
"438","dsc","14",24,1,"female",78,"m","m",1082,"right000",1,1082
"439","dsc","14",24,1,"female",79,"m","m",1042,"right000",1,1042
"440","dsc","14",24,1,"female",80,"m","m",1164,"right000",1,1164
"441","dsc","14",24,1,"female",81,"z","z",1337,"wrong000",1,1337
"442","dsc","14",24,1,"female",82,"m","z",1143,"wrong000",0,1143
"443","dsc","14",24,1,"female",83,"z","z",1412,"wrong000",1,1412
"444","dsc","14",24,1,"female",84,"m","z",952,"right000",0,952
"445","dsc","14",24,1,"female",85,"m","m",933,"right000",1,933
"446","dsc","14",24,1,"female",86,"m","m",923,"right000",1,923
"447","dsc","14",24,1,"female",87,"m","m",1233,"right000",1,1233
"448","dsc","14",24,1,"female",88,"m","m",859,"right000",1,859
"449","dsc","14",24,1,"female",89,"m","m",644,"right000",1,644
"450","dsc","14",24,1,"female",90,"m","m",1134,"right000",1,1134
"451","dsc","15",23,1,"male",1,"z","z",1985,"wrong000",1,1985
"452","dsc","15",23,1,"male",2,"z","z",1454,"wrong000",1,1454
"453","dsc","15",23,1,"male",3,"m","z",1239,"wrong000",0,1239
"454","dsc","15",23,1,"male",4,"z","z",1369,"wrong000",1,1369
"455","dsc","15",23,1,"male",5,"z","z",1300,"wrong000",1,1300
"456","dsc","15",23,1,"male",6,"z","z",1108,"wrong000",1,1108
"457","dsc","15",23,1,"male",7,"z","z",1443,"wrong000",1,1443
"458","dsc","15",23,1,"male",8,"m","m",1485,"right000",1,1485
"459","dsc","15",23,1,"male",9,"m","m",869,"right000",1,869
"460","dsc","15",23,1,"male",10,"z","z",949,"wrong000",1,949
"461","dsc","15",23,1,"male",11,"z","z",2050,"wrong000",1,2050
"462","dsc","15",23,1,"male",12,"m","m",1724,"right000",1,1724
"463","dsc","15",23,1,"male",13,"m","m",1450,"right000",1,1450
"464","dsc","15",23,1,"male",14,"z","z",1612,"wrong000",1,1612
"465","dsc","15",23,1,"male",15,"m","m",871,"right000",1,871
"466","dsc","15",23,1,"male",16,"m","m",1159,"right000",1,1159
"467","dsc","15",23,1,"male",17,"m","z",1021,"right000",0,1021
"468","dsc","15",23,1,"male",18,"m","m",1055,"right000",1,1055
"469","dsc","15",23,1,"male",19,"m","m",2160,"right000",1,2160
"470","dsc","15",23,1,"male",20,"m","m",1478,"right000",1,1478
"471","dsc","15",23,1,"male",21,"m","m",2030,"right000",1,2030
"472","dsc","15",23,1,"male",22,"m","m",1984,"right000",1,1984
"473","dsc","15",23,1,"male",23,"z","z",1661,"wrong000",1,1661
"474","dsc","15",23,1,"male",24,"m","m",2566,"right000",1,NA
"475","dsc","15",23,1,"male",25,"m","m",2507,"right000",1,NA
"476","dsc","15",23,1,"male",26,"z","z",1394,"wrong000",1,1394
"477","dsc","15",23,1,"male",27,"m","m",1390,"right000",1,1390
"478","dsc","15",23,1,"male",28,"z","z",1530,"wrong000",1,1530
"479","dsc","15",23,1,"male",29,"m","m",896,"right000",1,896
"480","dsc","15",23,1,"male",30,"m","m",1528,"right000",1,1528
"481","dsc","15",23,1,"male",31,"m","m",1079,"right000",1,1079
"482","dsc","15",23,1,"male",32,"m","z",919,"right000",0,919
"483","dsc","15",23,1,"male",33,"z","z",1350,"wrong000",1,1350
"484","dsc","15",23,1,"male",34,"m","m",1003,"right000",1,1003
"485","dsc","15",23,1,"male",35,"m","m",1414,"right000",1,1414
"486","dsc","15",23,1,"male",36,"z","z",1529,"wrong000",1,1529
"487","dsc","15",23,1,"male",37,"z","z",2134,"wrong000",1,2134
"488","dsc","15",23,1,"male",38,"m","m",1348,"right000",1,1348
"489","dsc","15",23,1,"male",39,"m","m",786,"right000",1,786
"490","dsc","15",23,1,"male",40,"z","z",1045,"wrong000",1,1045
"491","dsc","15",23,1,"male",41,"m","m",1167,"right000",1,1167
"492","dsc","15",23,1,"male",42,"z","z",1468,"wrong000",1,1468
"493","dsc","15",23,1,"male",43,"z","z",1108,"wrong000",1,1108
"494","dsc","15",23,1,"male",44,"z","z",1044,"wrong000",1,1044
"495","dsc","15",23,1,"male",45,"m","m",1181,"right000",1,1181
"496","dsc","15",23,1,"male",46,"z","z",1265,"wrong000",1,1265
"497","dsc","15",23,1,"male",47,"m","m",1034,"right000",1,1034
"498","dsc","15",23,1,"male",48,"m","m",2132,"right000",1,2132
"499","dsc","15",23,1,"male",49,"z","z",2050,"wrong000",1,2050
"500","dsc","15",23,1,"male",50,"z","z",1203,"wrong000",1,1203
"501","dsc","15",23,1,"male",51,"z","z",2054,"wrong000",1,2054
"502","dsc","15",23,1,"male",52,"m","m",864,"right000",1,864
"503","dsc","15",23,1,"male",53,"m","m",1112,"right000",1,1112
"504","dsc","15",23,1,"male",54,"z","z",1031,"wrong000",1,1031
"505","dsc","15",23,1,"male",55,"z","z",1393,"wrong000",1,1393
"506","dsc","15",23,1,"male",56,"z","z",1421,"wrong000",1,1421
"507","dsc","15",23,1,"male",57,"z","z",1647,"wrong000",1,1647
"508","dsc","15",23,1,"male",58,"m","m",1944,"right000",1,1944
"509","dsc","15",23,1,"male",59,"z","z",1383,"wrong000",1,1383
"510","dsc","15",23,1,"male",60,"m","m",1659,"right000",1,1659
"511","dsc","15",23,1,"male",61,"z","z",1012,"wrong000",1,1012
"512","dsc","15",23,1,"male",62,"z","z",1327,"wrong000",1,1327
"513","dsc","15",23,1,"male",63,"m","m",1454,"right000",1,1454
"514","dsc","15",23,1,"male",64,"z","z",1455,"wrong000",1,1455
"515","dsc","15",23,1,"male",65,"m","m",1640,"right000",1,1640
"516","dsc","15",23,1,"male",66,"m","m",1938,"right000",1,1938
"517","dsc","15",23,1,"male",67,"m","m",1632,"right000",1,1632
"518","dsc","15",23,1,"male",68,"z","z",1394,"wrong000",1,1394
"519","dsc","15",23,1,"male",69,"m","m",1086,"right000",1,1086
"520","dsc","15",23,1,"male",70,"m","m",1526,"right000",1,1526
"521","dsc","15",23,1,"male",71,"z","z",885,"wrong000",1,885
"522","dsc","15",23,1,"male",72,"z","z",1300,"wrong000",1,1300
"523","dsc","15",23,1,"male",73,"z","z",1699,"wrong000",1,1699
"524","dsc","15",23,1,"male",74,"z","z",1378,"wrong000",1,1378
"525","dsc","15",23,1,"male",75,"z","z",1303,"wrong000",1,1303
"526","dsc","15",23,1,"male",76,"m","m",1486,"right000",1,1486
"527","dsc","15",23,1,"male",77,"m","z",830,"right000",0,830
"528","dsc","15",23,1,"male",78,"z","z",1160,"wrong000",1,1160
"529","dsc","15",23,1,"male",79,"z","z",901,"wrong000",1,901
"530","dsc","15",23,1,"male",80,"z","z",852,"wrong000",1,852
"531","dsc","15",23,1,"male",81,"m","m",1246,"right000",1,1246
"532","dsc","15",23,1,"male",82,"z","z",1799,"wrong000",1,1799
"533","dsc","15",23,1,"male",83,"m","m",1859,"right000",1,1859
"534","dsc","15",23,1,"male",84,"z","z",1012,"wrong000",1,1012
"535","dsc","15",23,1,"male",85,"z","z",1527,"wrong000",1,1527
"536","dsc","15",23,1,"male",86,"m","m",1142,"right000",1,1142
"537","dsc","15",23,1,"male",87,"z","z",1220,"wrong000",1,1220
"538","dsc","15",23,1,"male",88,"m","m",934,"right000",1,934
"539","dsc","15",23,1,"male",89,"m","m",1700,"right000",1,1700
"540","dsc","15",23,1,"male",90,"m","m",579,"right000",1,579
"541","dsc","16",20,1,"female",1,"m","m",1195,"right000",1,1195
"542","dsc","16",20,1,"female",2,"z","z",1990,"wrong000",1,1990
"543","dsc","16",20,1,"female",3,"m","m",874,"right000",1,874
"544","dsc","16",20,1,"female",4,"z","z",1203,"wrong000",1,1203
"545","dsc","16",20,1,"female",5,"z","m",934,"wrong000",0,934
"546","dsc","16",20,1,"female",6,"m","m",1108,"right000",1,1108
"547","dsc","16",20,1,"female",7,"z","z",1107,"wrong000",1,1107
"548","dsc","16",20,1,"female",8,"z","z",1042,"wrong000",1,1042
"549","dsc","16",20,1,"female",9,"m","m",956,"right000",1,956
"550","dsc","16",20,1,"female",10,"z","z",1193,"wrong000",1,1193
"551","dsc","16",20,1,"female",11,"m","m",1053,"right000",1,1053
"552","dsc","16",20,1,"female",12,"z","z",846,"wrong000",1,846
"553","dsc","16",20,1,"female",13,"m","m",1432,"right000",1,1432
"554","dsc","16",20,1,"female",14,"z","z",802,"wrong000",1,802
"555","dsc","16",20,1,"female",15,"m","m",1229,"right000",1,1229
"556","dsc","16",20,1,"female",16,"m","m",1095,"right000",1,1095
"557","dsc","16",20,1,"female",17,"z","z",1159,"wrong000",1,1159
"558","dsc","16",20,1,"female",18,"z","z",1108,"wrong000",1,1108
"559","dsc","16",20,1,"female",19,"m","m",820,"right000",1,820
"560","dsc","16",20,1,"female",20,"m","m",1070,"right000",1,1070
"561","dsc","16",20,1,"female",21,"m","m",862,"right000",1,862
"562","dsc","16",20,1,"female",22,"m","m",856,"right000",1,856
"563","dsc","16",20,1,"female",23,"m","m",825,"right000",1,825
"564","dsc","16",20,1,"female",24,"m","m",1251,"right000",1,1251
"565","dsc","16",20,1,"female",25,"m","m",876,"right000",1,876
"566","dsc","16",20,1,"female",26,"z","z",1045,"wrong000",1,1045
"567","dsc","16",20,1,"female",27,"m","m",903,"right000",1,903
"568","dsc","16",20,1,"female",28,"z","z",894,"wrong000",1,894
"569","dsc","16",20,1,"female",29,"z","z",813,"wrong000",1,813
"570","dsc","16",20,1,"female",30,"m","m",1440,"right000",1,1440
"571","dsc","16",20,1,"female",31,"z","z",938,"wrong000",1,938
"572","dsc","16",20,1,"female",32,"z","z",1032,"wrong000",1,1032
"573","dsc","16",20,1,"female",33,"z","z",898,"wrong000",1,898
"574","dsc","16",20,1,"female",34,"m","m",1129,"right000",1,1129
"575","dsc","16",20,1,"female",35,"m","m",1032,"right000",1,1032
"576","dsc","16",20,1,"female",36,"m","m",777,"right000",1,777
"577","dsc","16",20,1,"female",37,"m","m",1390,"right000",1,1390
"578","dsc","16",20,1,"female",38,"z","z",890,"wrong000",1,890
"579","dsc","16",20,1,"female",39,"m","m",897,"right000",1,897
"580","dsc","16",20,1,"female",40,"z","z",729,"wrong000",1,729
"581","dsc","16",20,1,"female",41,"m","m",703,"right000",1,703
"582","dsc","16",20,1,"female",42,"m","m",1150,"right000",1,1150
"583","dsc","16",20,1,"female",43,"m","m",963,"right000",1,963
"584","dsc","16",20,1,"female",44,"m","z",1224,"wrong000",0,1224
"585","dsc","16",20,1,"female",45,"m","m",1531,"right000",1,1531
"586","dsc","16",20,1,"female",46,"m","m",889,"right000",1,889
"587","dsc","16",20,1,"female",47,"z","z",937,"wrong000",1,937
"588","dsc","16",20,1,"female",48,"z","z",910,"wrong000",1,910
"589","dsc","16",20,1,"female",49,"z","z",781,"wrong000",1,781
"590","dsc","16",20,1,"female",50,"z","z",777,"wrong000",1,777
"591","dsc","16",20,1,"female",51,"m","m",926,"right000",1,926
"592","dsc","16",20,1,"female",52,"z","z",948,"wrong000",1,948
"593","dsc","16",20,1,"female",53,"m","m",1169,"right000",1,1169
"594","dsc","16",20,1,"female",54,"m","m",886,"right000",1,886
"595","dsc","16",20,1,"female",55,"z","m",644,"wrong000",0,644
"596","dsc","16",20,1,"female",56,"z","z",791,"wrong000",1,791
"597","dsc","16",20,1,"female",57,"z","z",739,"wrong000",1,739
"598","dsc","16",20,1,"female",58,"z","z",744,"wrong000",1,744
"599","dsc","16",20,1,"female",59,"m","m",1061,"right000",1,1061
"600","dsc","16",20,1,"female",60,"m","m",1222,"right000",1,1222
"601","dsc","16",20,1,"female",61,"m","m",937,"right000",1,937
"602","dsc","16",20,1,"female",62,"z","z",719,"wrong000",1,719
"603","dsc","16",20,1,"female",63,"z","z",621,"wrong000",1,621
"604","dsc","16",20,1,"female",64,"z","z",623,"wrong000",1,623
"605","dsc","16",20,1,"female",65,"m","m",898,"right000",1,898
"606","dsc","16",20,1,"female",66,"m","m",977,"right000",1,977
"607","dsc","16",20,1,"female",67,"z","z",661,"wrong000",1,661
"608","dsc","16",20,1,"female",68,"m","m",870,"right000",1,870
"609","dsc","16",20,1,"female",69,"z","z",847,"wrong000",1,847
"610","dsc","16",20,1,"female",70,"m","m",896,"right000",1,896
"611","dsc","16",20,1,"female",71,"z","z",856,"wrong000",1,856
"612","dsc","16",20,1,"female",72,"m","z",529,"right000",0,529
"613","dsc","16",20,1,"female",73,"z","z",815,"wrong000",1,815
"614","dsc","16",20,1,"female",74,"m","m",1057,"right000",1,1057
"615","dsc","16",20,1,"female",75,"z","z",835,"wrong000",1,835
"616","dsc","16",20,1,"female",76,"m","m",1020,"right000",1,1020
"617","dsc","16",20,1,"female",77,"m","m",823,"right000",1,823
"618","dsc","16",20,1,"female",78,"m","m",1201,"right000",1,1201
"619","dsc","16",20,1,"female",79,"z","z",1164,"wrong000",1,1164
"620","dsc","16",20,1,"female",80,"z","z",897,"wrong000",1,897
"621","dsc","16",20,1,"female",81,"z","z",688,"wrong000",1,688
"622","dsc","16",20,1,"female",82,"z","z",736,"wrong000",1,736
"623","dsc","16",20,1,"female",83,"z","z",558,"wrong000",1,558
"624","dsc","16",20,1,"female",84,"m","m",571,"right000",1,571
"625","dsc","16",20,1,"female",85,"z","z",687,"wrong000",1,687
"626","dsc","16",20,1,"female",86,"z","z",831,"wrong000",1,831
"627","dsc","16",20,1,"female",87,"m","m",1016,"right000",1,1016
"628","dsc","16",20,1,"female",88,"m","m",843,"right000",1,843
"629","dsc","16",20,1,"female",89,"z","z",749,"wrong000",1,749
"630","dsc","16",20,1,"female",90,"z","z",650,"wrong000",1,650
"631","dsc","17",29,1,"female",1,"z","z",1317,"wrong000",1,1317
"632","dsc","17",29,1,"female",2,"z","z",1139,"wrong000",1,1139
"633","dsc","17",29,1,"female",3,"z","z",1121,"wrong000",1,1121
"634","dsc","17",29,1,"female",4,"z","z",1167,"wrong000",1,1167
"635","dsc","17",29,1,"female",5,"z","z",852,"wrong000",1,852
"636","dsc","17",29,1,"female",6,"m","m",1037,"right000",1,1037
"637","dsc","17",29,1,"female",7,"m","m",943,"right000",1,943
"638","dsc","17",29,1,"female",8,"z","z",1213,"wrong000",1,1213
"639","dsc","17",29,1,"female",9,"z","z",1136,"wrong000",1,1136
"640","dsc","17",29,1,"female",10,"m","m",894,"right000",1,894
"641","dsc","17",29,1,"female",11,"z","z",1445,"wrong000",1,1445
"642","dsc","17",29,1,"female",12,"m","m",1463,"right000",1,1463
"643","dsc","17",29,1,"female",13,"m","m",912,"right000",1,912
"644","dsc","17",29,1,"female",14,"z","z",767,"wrong000",1,767
"645","dsc","17",29,1,"female",15,"z","m",963,"wrong000",0,963
"646","dsc","17",29,1,"female",16,"z","z",1144,"wrong000",1,1144
"647","dsc","17",29,1,"female",17,"m","m",1006,"right000",1,1006
"648","dsc","17",29,1,"female",18,"m","z",1057,"wrong000",0,1057
"649","dsc","17",29,1,"female",19,"z","z",882,"wrong000",1,882
"650","dsc","17",29,1,"female",20,"m","m",930,"right000",1,930
"651","dsc","17",29,1,"female",21,"z","z",1088,"wrong000",1,1088
"652","dsc","17",29,1,"female",22,"m","m",1256,"right000",1,1256
"653","dsc","17",29,1,"female",23,"z","z",897,"wrong000",1,897
"654","dsc","17",29,1,"female",24,"z","z",648,"wrong000",1,648
"655","dsc","17",29,1,"female",25,"z","z",825,"wrong000",1,825
"656","dsc","17",29,1,"female",26,"z","z",652,"wrong000",1,652
"657","dsc","17",29,1,"female",27,"m","m",957,"right000",1,957
"658","dsc","17",29,1,"female",28,"z","z",1010,"wrong000",1,1010
"659","dsc","17",29,1,"female",29,"z","z",1653,"wrong000",1,1653
"660","dsc","17",29,1,"female",30,"z","z",934,"wrong000",1,934
"661","dsc","17",29,1,"female",31,"m","m",988,"right000",1,988
"662","dsc","17",29,1,"female",32,"m","m",1208,"right000",1,1208
"663","dsc","17",29,1,"female",33,"m","m",995,"right000",1,995
"664","dsc","17",29,1,"female",34,"m","z",999,"right000",0,999
"665","dsc","17",29,1,"female",35,"z","z",1394,"wrong000",1,1394
"666","dsc","17",29,1,"female",36,"m","m",1022,"right000",1,1022
"667","dsc","17",29,1,"female",37,"m","m",1305,"right000",1,1305
"668","dsc","17",29,1,"female",38,"m","m",800,"right000",1,800
"669","dsc","17",29,1,"female",39,"z","z",851,"wrong000",1,851
"670","dsc","17",29,1,"female",40,"m","m",1131,"right000",1,1131
"671","dsc","17",29,1,"female",41,"m","m",1105,"right000",1,1105
"672","dsc","17",29,1,"female",42,"z","z",1080,"wrong000",1,1080
"673","dsc","17",29,1,"female",43,"m","m",1320,"right000",1,1320
"674","dsc","17",29,1,"female",44,"m","m",822,"right000",1,822
"675","dsc","17",29,1,"female",45,"z","z",1177,"wrong000",1,1177
"676","dsc","17",29,1,"female",46,"m","m",1645,"right000",1,1645
"677","dsc","17",29,1,"female",47,"z","z",919,"wrong000",1,919
"678","dsc","17",29,1,"female",48,"z","z",1518,"wrong000",1,1518
"679","dsc","17",29,1,"female",49,"z","z",1292,"wrong000",1,1292
"680","dsc","17",29,1,"female",50,"m","m",1044,"right000",1,1044
"681","dsc","17",29,1,"female",51,"z","z",934,"wrong000",1,934
"682","dsc","17",29,1,"female",52,"m","m",1116,"right000",1,1116
"683","dsc","17",29,1,"female",53,"m","m",1650,"right000",1,1650
"684","dsc","17",29,1,"female",54,"m","m",1036,"right000",1,1036
"685","dsc","17",29,1,"female",55,"m","m",957,"right000",1,957
"686","dsc","17",29,1,"female",56,"m","m",699,"right000",1,699
"687","dsc","17",29,1,"female",57,"m","z",1258,"right000",0,1258
"688","dsc","17",29,1,"female",58,"z","m",939,"wrong000",0,939
"689","dsc","17",29,1,"female",59,"z","z",1177,"wrong000",1,1177
"690","dsc","17",29,1,"female",60,"m","m",781,"right000",1,781
"691","dsc","17",29,1,"female",61,"z","z",825,"wrong000",1,825
"692","dsc","17",29,1,"female",62,"m","m",739,"right000",1,739
"693","dsc","17",29,1,"female",63,"m","m",833,"right000",1,833
"694","dsc","17",29,1,"female",64,"m","m",795,"right000",1,795
"695","dsc","17",29,1,"female",65,"z","z",982,"wrong000",1,982
"696","dsc","17",29,1,"female",66,"m","m",770,"right000",1,770
"697","dsc","17",29,1,"female",67,"z","z",1023,"wrong000",1,1023
"698","dsc","17",29,1,"female",68,"m","m",921,"right000",1,921
"699","dsc","17",29,1,"female",69,"m","m",824,"right000",1,824
"700","dsc","17",29,1,"female",70,"z","m",858,"wrong000",0,858
"701","dsc","17",29,1,"female",71,"m","m",843,"right000",1,843
"702","dsc","17",29,1,"female",72,"z","z",2237,"wrong000",1,2237
"703","dsc","17",29,1,"female",73,"z","z",1135,"wrong000",1,1135
"704","dsc","17",29,1,"female",74,"m","m",1045,"right000",1,1045
"705","dsc","17",29,1,"female",75,"z","z",855,"wrong000",1,855
"706","dsc","17",29,1,"female",76,"z","z",1216,"wrong000",1,1216
"707","dsc","17",29,1,"female",77,"z","z",1002,"wrong000",1,1002
"708","dsc","17",29,1,"female",78,"z","z",1045,"wrong000",1,1045
"709","dsc","17",29,1,"female",79,"z","z",1111,"wrong000",1,1111
"710","dsc","17",29,1,"female",80,"m","m",1158,"right000",1,1158
"711","dsc","17",29,1,"female",81,"m","m",1108,"right000",1,1108
"712","dsc","17",29,1,"female",82,"m","m",1875,"right000",1,1875
"713","dsc","17",29,1,"female",83,"m","m",1147,"right000",1,1147
"714","dsc","17",29,1,"female",84,"m","m",913,"right000",1,913
"715","dsc","17",29,1,"female",85,"z","z",856,"wrong000",1,856
"716","dsc","17",29,1,"female",86,"z","m",1153,"wrong000",0,1153
"717","dsc","17",29,1,"female",87,"m","m",1158,"right000",1,1158
"718","dsc","17",29,1,"female",88,"m","m",923,"right000",1,923
"719","dsc","17",29,1,"female",89,"m","m",1346,"right000",1,1346
"720","dsc","17",29,1,"female",90,"z","z",1008,"wrong000",1,1008
"721","dsc","18",29,1,"female",1,"m","m",2117,"right000",1,2117
"722","dsc","18",29,1,"female",2,"z","z",1356,"wrong000",1,1356
"723","dsc","18",29,1,"female",3,"z","z",1896,"wrong000",1,1896
"724","dsc","18",29,1,"female",4,"m","z",1071,"right000",0,1071
"725","dsc","18",29,1,"female",5,"z","z",1936,"wrong000",1,1936
"726","dsc","18",29,1,"female",6,"m","m",1206,"right000",1,1206
"727","dsc","18",29,1,"female",7,"m","m",1657,"right000",1,1657
"728","dsc","18",29,1,"female",8,"m","m",1875,"right000",1,1875
"729","dsc","18",29,1,"female",9,"z","z",1315,"wrong000",1,1315
"730","dsc","18",29,1,"female",10,"z","z",2714,"wrong000",1,NA
"731","dsc","18",29,1,"female",11,"z","z",1841,"wrong000",1,1841
"732","dsc","18",29,1,"female",12,"m","m",995,"right000",1,995
"733","dsc","18",29,1,"female",13,"m","m",1319,"right000",1,1319
"734","dsc","18",29,1,"female",14,"z","z",1381,"wrong000",1,1381
"735","dsc","18",29,1,"female",15,"m","m",1969,"right000",1,1969
"736","dsc","18",29,1,"female",16,"z","z",1726,"wrong000",1,1726
"737","dsc","18",29,1,"female",17,"m","m",1357,"right000",1,1357
"738","dsc","18",29,1,"female",18,"m","m",1130,"right000",1,1130
"739","dsc","18",29,1,"female",19,"m","m",880,"right000",1,880
"740","dsc","18",29,1,"female",20,"z","z",2160,"wrong000",1,2160
"741","dsc","18",29,1,"female",21,"z","z",1542,"wrong000",1,1542
"742","dsc","18",29,1,"female",22,"m","m",1340,"right000",1,1340
"743","dsc","18",29,1,"female",23,"m","m",1346,"right000",1,1346
"744","dsc","18",29,1,"female",24,"z","z",2672,"wrong000",1,NA
"745","dsc","18",29,1,"female",25,"m","m",1680,"right000",1,1680
"746","dsc","18",29,1,"female",26,"m","m",1409,"right000",1,1409
"747","dsc","18",29,1,"female",27,"z","z",2132,"wrong000",1,2132
"748","dsc","18",29,1,"female",28,"z","z",938,"wrong000",1,938
"749","dsc","18",29,1,"female",29,"z","z",1456,"wrong000",1,1456
"750","dsc","18",29,1,"female",30,"m","m",1113,"right000",1,1113
"751","dsc","18",29,1,"female",31,"z","z",1296,"wrong000",1,1296
"752","dsc","18",29,1,"female",32,"m","m",1728,"right000",1,1728
"753","dsc","18",29,1,"female",33,"z","z",1399,"wrong000",1,1399
"754","dsc","18",29,1,"female",34,"z","z",1434,"wrong000",1,1434
"755","dsc","18",29,1,"female",35,"z","z",1259,"wrong000",1,1259
"756","dsc","18",29,1,"female",36,"m","z",1772,"wrong000",0,1772
"757","dsc","18",29,1,"female",37,"m","m",1217,"right000",1,1217
"758","dsc","18",29,1,"female",38,"m","m",939,"right000",1,939
"759","dsc","18",29,1,"female",39,"m","m",921,"right000",1,921
"760","dsc","18",29,1,"female",40,"z","z",1448,"wrong000",1,1448
"761","dsc","18",29,1,"female",41,"m","m",1273,"right000",1,1273
"762","dsc","18",29,1,"female",42,"z","z",1169,"wrong000",1,1169
"763","dsc","18",29,1,"female",43,"m","m",1302,"right000",1,1302
"764","dsc","18",29,1,"female",44,"m","m",1509,"right000",1,1509
"765","dsc","18",29,1,"female",45,"z","z",1572,"wrong000",1,1572
"766","dsc","18",29,1,"female",46,"z","z",2537,"wrong000",1,NA
"767","dsc","18",29,1,"female",47,"z","z",2191,"wrong000",1,2191
"768","dsc","18",29,1,"female",48,"m","z",1572,"right000",0,1572
"769","dsc","18",29,1,"female",49,"m","m",1264,"right000",1,1264
"770","dsc","18",29,1,"female",50,"m","m",1737,"right000",1,1737
"771","dsc","18",29,1,"female",51,"z","z",2151,"wrong000",1,2151
"772","dsc","18",29,1,"female",52,"m","m",1908,"right000",1,1908
"773","dsc","18",29,1,"female",53,"z","z",2324,"wrong000",1,2324
"774","dsc","18",29,1,"female",54,"z","z",1507,"wrong000",1,1507
"775","dsc","18",29,1,"female",55,"z","z",2410,"wrong000",1,2410
"776","dsc","18",29,1,"female",56,"z","z",2533,"wrong000",1,NA
"777","dsc","18",29,1,"female",57,"z","z",1660,"wrong000",1,1660
"778","dsc","18",29,1,"female",58,"m","m",1229,"right000",1,1229
"779","dsc","18",29,1,"female",59,"m","m",1856,"right000",1,1856
"780","dsc","18",29,1,"female",60,"z","z",1873,"wrong000",1,1873
"781","dsc","18",29,1,"female",61,"m","m",1642,"right000",1,1642
"782","dsc","18",29,1,"female",62,"m","m",1628,"right000",1,1628
"783","dsc","18",29,1,"female",63,"m","m",1118,"right000",1,1118
"784","dsc","18",29,1,"female",64,"m","m",1485,"right000",1,1485
"785","dsc","18",29,1,"female",65,"m","m",1621,"right000",1,1621
"786","dsc","18",29,1,"female",66,"m","m",1383,"right000",1,1383
"787","dsc","18",29,1,"female",67,"z","z",1242,"wrong000",1,1242
"788","dsc","18",29,1,"female",68,"z","z",1612,"wrong000",1,1612
"789","dsc","18",29,1,"female",69,"z","z",1560,"wrong000",1,1560
"790","dsc","18",29,1,"female",70,"z","z",1741,"wrong000",1,1741
"791","dsc","18",29,1,"female",71,"z","z",1228,"wrong000",1,1228
"792","dsc","18",29,1,"female",72,"z","z",1638,"wrong000",1,1638
"793","dsc","18",29,1,"female",73,"z","z",1760,"wrong000",1,1760
"794","dsc","18",29,1,"female",74,"m","m",2277,"right000",1,2277
"795","dsc","18",29,1,"female",75,"z","z",2038,"wrong000",1,2038
"796","dsc","18",29,1,"female",76,"m","m",1528,"right000",1,1528
"797","dsc","18",29,1,"female",77,"m","m",1647,"right000",1,1647
"798","dsc","18",29,1,"female",78,"m","m",1480,"right000",1,1480
"799","dsc","18",29,1,"female",79,"z","z",1640,"wrong000",1,1640
"800","dsc","18",29,1,"female",80,"m","m",1338,"right000",1,1338
"801","dsc","18",29,1,"female",81,"z","z",2920,"wrong000",1,NA
"802","dsc","18",29,1,"female",82,"z","z",1255,"wrong000",1,1255
"803","dsc","18",29,1,"female",83,"m","m",1752,"right000",1,1752
"804","dsc","18",29,1,"female",84,"m","m",1725,"right000",1,1725
"805","dsc","18",29,1,"female",85,"z","z",1508,"wrong000",1,1508
"806","dsc","18",29,1,"female",86,"m","m",2403,"right000",1,2403
"807","dsc","18",29,1,"female",87,"m","m",1343,"right000",1,1343
"808","dsc","18",29,1,"female",88,"z","z",2045,"wrong000",1,2045
"809","dsc","18",29,1,"female",89,"m","z",1399,"right000",0,1399
"810","dsc","18",29,1,"female",90,"z","z",2282,"wrong000",1,2282
"811","dsc","20",31,1,"male",1,"m","m",1165,"right000",1,1165
"812","dsc","20",31,1,"male",2,"m","m",1489,"right000",1,1489
"813","dsc","20",31,1,"male",3,"z","z",1561,"wrong000",1,1561
"814","dsc","20",31,1,"male",4,"z","z",1014,"wrong000",1,1014
"815","dsc","20",31,1,"male",5,"m","m",1201,"right000",1,1201
"816","dsc","20",31,1,"male",6,"m","m",1364,"right000",1,1364
"817","dsc","20",31,1,"male",7,"m","m",1201,"right000",1,1201
"818","dsc","20",31,1,"male",8,"z","z",1324,"wrong000",1,1324
"819","dsc","20",31,1,"male",9,"m","m",818,"right000",1,818
"820","dsc","20",31,1,"male",10,"m","m",1357,"right000",1,1357
"821","dsc","20",31,1,"male",11,"z","z",914,"wrong000",1,914
"822","dsc","20",31,1,"male",12,"m","z",1425,"wrong000",0,1425
"823","dsc","20",31,1,"male",13,"z","z",1627,"wrong000",1,1627
"824","dsc","20",31,1,"male",14,"m","m",902,"right000",1,902
"825","dsc","20",31,1,"male",15,"m","m",1461,"right000",1,1461
"826","dsc","20",31,1,"male",16,"m","m",1302,"right000",1,1302
"827","dsc","20",31,1,"male",17,"m","m",997,"right000",1,997
"828","dsc","20",31,1,"male",18,"m","m",841,"right000",1,841
"829","dsc","20",31,1,"male",19,"z","z",1146,"wrong000",1,1146
"830","dsc","20",31,1,"male",20,"z","z",824,"wrong000",1,824
"831","dsc","20",31,1,"male",21,"m","m",867,"right000",1,867
"832","dsc","20",31,1,"male",22,"m","m",1251,"right000",1,1251
"833","dsc","20",31,1,"male",23,"m","m",892,"right000",1,892
"834","dsc","20",31,1,"male",24,"z","z",1020,"wrong000",1,1020
"835","dsc","20",31,1,"male",25,"z","z",1494,"wrong000",1,1494
"836","dsc","20",31,1,"male",26,"m","m",1654,"right000",1,1654
"837","dsc","20",31,1,"male",27,"m","m",1256,"right000",1,1256
"838","dsc","20",31,1,"male",28,"z","z",1537,"wrong000",1,1537
"839","dsc","20",31,1,"male",29,"m","m",1239,"right000",1,1239
"840","dsc","20",31,1,"male",30,"m","m",1233,"right000",1,1233
"841","dsc","20",31,1,"male",31,"m","m",1147,"right000",1,1147
"842","dsc","20",31,1,"male",32,"m","m",904,"right000",1,904
"843","dsc","20",31,1,"male",33,"m","m",896,"right000",1,896
"844","dsc","20",31,1,"male",34,"m","m",879,"right000",1,879
"845","dsc","20",31,1,"male",35,"z","z",808,"wrong000",1,808
"846","dsc","20",31,1,"male",36,"z","z",1034,"wrong000",1,1034
"847","dsc","20",31,1,"male",37,"z","z",1172,"wrong000",1,1172
"848","dsc","20",31,1,"male",38,"m","m",968,"right000",1,968
"849","dsc","20",31,1,"male",39,"m","m",949,"right000",1,949
"850","dsc","20",31,1,"male",40,"m","m",1258,"right000",1,1258
"851","dsc","20",31,1,"male",41,"m","m",803,"right000",1,803
"852","dsc","20",31,1,"male",42,"z","z",1022,"wrong000",1,1022
"853","dsc","20",31,1,"male",43,"z","z",1008,"wrong000",1,1008
"854","dsc","20",31,1,"male",44,"z","z",1044,"wrong000",1,1044
"855","dsc","20",31,1,"male",45,"z","z",909,"wrong000",1,909
"856","dsc","20",31,1,"male",46,"z","z",853,"wrong000",1,853
"857","dsc","20",31,1,"male",47,"m","m",830,"right000",1,830
"858","dsc","20",31,1,"male",48,"m","m",959,"right000",1,959
"859","dsc","20",31,1,"male",49,"m","m",740,"right000",1,740
"860","dsc","20",31,1,"male",50,"m","m",762,"right000",1,762
"861","dsc","20",31,1,"male",51,"m","m",1143,"right000",1,1143
"862","dsc","20",31,1,"male",52,"m","m",1309,"right000",1,1309
"863","dsc","20",31,1,"male",53,"m","m",836,"right000",1,836
"864","dsc","20",31,1,"male",54,"z","z",878,"wrong000",1,878
"865","dsc","20",31,1,"male",55,"z","m",790,"wrong000",0,790
"866","dsc","20",31,1,"male",56,"z","z",1978,"wrong000",1,1978
"867","dsc","20",31,1,"male",57,"m","m",959,"right000",1,959
"868","dsc","20",31,1,"male",58,"z","z",860,"wrong000",1,860
"869","dsc","20",31,1,"male",59,"m","m",829,"right000",1,829
"870","dsc","20",31,1,"male",60,"z","z",1016,"wrong000",1,1016
"871","dsc","20",31,1,"male",61,"m","m",858,"right000",1,858
"872","dsc","20",31,1,"male",62,"z","z",723,"wrong000",1,723
"873","dsc","20",31,1,"male",63,"z","z",938,"wrong000",1,938
"874","dsc","20",31,1,"male",64,"z","z",1399,"wrong000",1,1399
"875","dsc","20",31,1,"male",65,"z","z",819,"wrong000",1,819
"876","dsc","20",31,1,"male",66,"z","z",1197,"wrong000",1,1197
"877","dsc","20",31,1,"male",67,"z","z",1464,"wrong000",1,1464
"878","dsc","20",31,1,"male",68,"m","m",681,"right000",1,681
"879","dsc","20",31,1,"male",69,"z","z",872,"wrong000",1,872
"880","dsc","20",31,1,"male",70,"z","z",897,"wrong000",1,897
"881","dsc","20",31,1,"male",71,"z","z",1240,"wrong000",1,1240
"882","dsc","20",31,1,"male",72,"m","m",1130,"right000",1,1130
"883","dsc","20",31,1,"male",73,"z","z",824,"wrong000",1,824
"884","dsc","20",31,1,"male",74,"z","z",1059,"wrong000",1,1059
"885","dsc","20",31,1,"male",75,"m","m",868,"right000",1,868
"886","dsc","20",31,1,"male",76,"z","z",788,"wrong000",1,788
"887","dsc","20",31,1,"male",77,"m","m",1312,"right000",1,1312
"888","dsc","20",31,1,"male",78,"m","m",983,"right000",1,983
"889","dsc","20",31,1,"male",79,"z","z",723,"wrong000",1,723
"890","dsc","20",31,1,"male",80,"m","m",882,"right000",1,882
"891","dsc","20",31,1,"male",81,"z","z",1209,"wrong000",1,1209
"892","dsc","20",31,1,"male",82,"z","z",1172,"wrong000",1,1172
"893","dsc","20",31,1,"male",83,"z","z",865,"wrong000",1,865
"894","dsc","20",31,1,"male",84,"z","z",1009,"wrong000",1,1009
"895","dsc","20",31,1,"male",85,"z","z",917,"wrong000",1,917
"896","dsc","20",31,1,"male",86,"m","m",1139,"right000",1,1139
"897","dsc","20",31,1,"male",87,"z","z",857,"wrong000",1,857
"898","dsc","20",31,1,"male",88,"z","z",1170,"wrong000",1,1170
"899","dsc","20",31,1,"male",89,"z","z",1342,"wrong000",1,1342
"900","dsc","20",31,1,"male",90,"m","m",788,"right000",1,788
"901","dsc","21",22,1,"female",1,"z","z",1609,"wrong000",1,1609
"902","dsc","21",22,1,"female",2,"m","m",1373,"right000",1,1373
"903","dsc","21",22,1,"female",3,"z","z",2025,"wrong000",1,2025
"904","dsc","21",22,1,"female",4,"m","m",1516,"right000",1,1516
"905","dsc","21",22,1,"female",5,"z","z",1483,"wrong000",1,1483
"906","dsc","21",22,1,"female",6,"z","z",1651,"wrong000",1,1651
"907","dsc","21",22,1,"female",7,"m","m",1363,"right000",1,1363
"908","dsc","21",22,1,"female",8,"m","m",1615,"right000",1,1615
"909","dsc","21",22,1,"female",9,"z","z",1450,"wrong000",1,1450
"910","dsc","21",22,1,"female",10,"z","z",1595,"wrong000",1,1595
"911","dsc","21",22,1,"female",11,"z","z",1599,"wrong000",1,1599
"912","dsc","21",22,1,"female",12,"m","m",1291,"right000",1,1291
"913","dsc","21",22,1,"female",13,"z","z",2211,"wrong000",1,2211
"914","dsc","21",22,1,"female",14,"m","m",1294,"right000",1,1294
"915","dsc","21",22,1,"female",15,"z","z",1606,"wrong000",1,1606
"916","dsc","21",22,1,"female",16,"z","z",1609,"wrong000",1,1609
"917","dsc","21",22,1,"female",17,"m","m",1221,"right000",1,1221
"918","dsc","21",22,1,"female",18,"m","m",1375,"right000",1,1375
"919","dsc","21",22,1,"female",19,"m","z",1428,"right000",0,1428
"920","dsc","21",22,1,"female",20,"z","z",1350,"wrong000",1,1350
"921","dsc","21",22,1,"female",21,"m","m",1300,"right000",1,1300
"922","dsc","21",22,1,"female",22,"m","m",987,"right000",1,987
"923","dsc","21",22,1,"female",23,"m","m",1111,"right000",1,1111
"924","dsc","21",22,1,"female",24,"m","m",1566,"right000",1,1566
"925","dsc","21",22,1,"female",25,"z","z",1162,"wrong000",1,1162
"926","dsc","21",22,1,"female",26,"m","m",1280,"right000",1,1280
"927","dsc","21",22,1,"female",27,"m","z",1264,"wrong000",0,1264
"928","dsc","21",22,1,"female",28,"z","z",1913,"wrong000",1,1913
"929","dsc","21",22,1,"female",29,"m","m",1792,"right000",1,1792
"930","dsc","21",22,1,"female",30,"z","z",1252,"wrong000",1,1252
"931","dsc","21",22,1,"female",31,"z","z",1333,"wrong000",1,1333
"932","dsc","21",22,1,"female",32,"m","m",1427,"right000",1,1427
"933","dsc","21",22,1,"female",33,"z","z",1454,"wrong000",1,1454
"934","dsc","21",22,1,"female",34,"z","z",1559,"wrong000",1,1559
"935","dsc","21",22,1,"female",35,"z","z",1445,"wrong000",1,1445
"936","dsc","21",22,1,"female",36,"z","z",1558,"wrong000",1,1558
"937","dsc","21",22,1,"female",37,"z","z",1204,"wrong000",1,1204
"938","dsc","21",22,1,"female",38,"m","m",1015,"right000",1,1015
"939","dsc","21",22,1,"female",39,"z","z",1265,"wrong000",1,1265
"940","dsc","21",22,1,"female",40,"m","m",1442,"right000",1,1442
"941","dsc","21",22,1,"female",41,"z","z",1523,"wrong000",1,1523
"942","dsc","21",22,1,"female",42,"z","z",978,"wrong000",1,978
"943","dsc","21",22,1,"female",43,"m","m",990,"right000",1,990
"944","dsc","21",22,1,"female",44,"z","z",1370,"wrong000",1,1370
"945","dsc","21",22,1,"female",45,"m","m",1350,"right000",1,1350
"946","dsc","21",22,1,"female",46,"z","z",860,"wrong000",1,860
"947","dsc","21",22,1,"female",47,"z","z",1501,"wrong000",1,1501
"948","dsc","21",22,1,"female",48,"m","m",972,"right000",1,972
"949","dsc","21",22,1,"female",49,"m","m",1137,"right000",1,1137
"950","dsc","21",22,1,"female",50,"m","z",1094,"right000",0,1094
"951","dsc","21",22,1,"female",51,"m","m",2102,"right000",1,2102
"952","dsc","21",22,1,"female",52,"z","z",1670,"wrong000",1,1670
"953","dsc","21",22,1,"female",53,"m","m",1270,"right000",1,1270
"954","dsc","21",22,1,"female",54,"z","z",1711,"wrong000",1,1711
"955","dsc","21",22,1,"female",55,"m","m",1702,"right000",1,1702
"956","dsc","21",22,1,"female",56,"m","m",1086,"right000",1,1086
"957","dsc","21",22,1,"female",57,"z","z",1117,"wrong000",1,1117
"958","dsc","21",22,1,"female",58,"m","m",1364,"right000",1,1364
"959","dsc","21",22,1,"female",59,"m","z",1377,"right000",0,1377
"960","dsc","21",22,1,"female",60,"z","z",1333,"wrong000",1,1333
"961","dsc","21",22,1,"female",61,"z","z",1451,"wrong000",1,1451
"962","dsc","21",22,1,"female",62,"m","m",1324,"right000",1,1324
"963","dsc","21",22,1,"female",63,"z","z",1299,"wrong000",1,1299
"964","dsc","21",22,1,"female",64,"m","m",1154,"right000",1,1154
"965","dsc","21",22,1,"female",65,"m","m",1247,"right000",1,1247
"966","dsc","21",22,1,"female",66,"m","m",1129,"right000",1,1129
"967","dsc","21",22,1,"female",67,"z","z",1391,"wrong000",1,1391
"968","dsc","21",22,1,"female",68,"z","z",1083,"wrong000",1,1083
"969","dsc","21",22,1,"female",69,"m","m",947,"right000",1,947
"970","dsc","21",22,1,"female",70,"m","m",952,"right000",1,952
"971","dsc","21",22,1,"female",71,"z","z",1613,"wrong000",1,1613
"972","dsc","21",22,1,"female",72,"m","m",888,"right000",1,888
"973","dsc","21",22,1,"female",73,"m","m",760,"right000",1,760
"974","dsc","21",22,1,"female",74,"m","m",1381,"right000",1,1381
"975","dsc","21",22,1,"female",75,"m","m",969,"right000",1,969
"976","dsc","21",22,1,"female",76,"z","z",886,"wrong000",1,886
"977","dsc","21",22,1,"female",77,"z","z",1077,"wrong000",1,1077
"978","dsc","21",22,1,"female",78,"m","m",965,"right000",1,965
"979","dsc","21",22,1,"female",79,"z","z",1426,"wrong000",1,1426
"980","dsc","21",22,1,"female",80,"z","z",1036,"wrong000",1,1036
"981","dsc","21",22,1,"female",81,"m","m",1030,"right000",1,1030
"982","dsc","21",22,1,"female",82,"z","z",1296,"wrong000",1,1296
"983","dsc","21",22,1,"female",83,"m","m",1224,"right000",1,1224
"984","dsc","21",22,1,"female",84,"z","z",1771,"wrong000",1,1771
"985","dsc","21",22,1,"female",85,"z","z",1087,"wrong000",1,1087
"986","dsc","21",22,1,"female",86,"m","m",943,"right000",1,943
"987","dsc","21",22,1,"female",87,"z","z",1341,"wrong000",1,1341
"988","dsc","21",22,1,"female",88,"z","z",1283,"wrong000",1,1283
"989","dsc","21",22,1,"female",89,"m","m",651,"right000",1,651
"990","dsc","21",22,1,"female",90,"m","m",2364,"right000",1,2364
"991","dsc","22",25,1,"male",1,"m","m",2138,"right000",1,2138
"992","dsc","22",25,1,"male",2,"z","z",1976,"wrong000",1,1976
"993","dsc","22",25,1,"male",3,"m","m",1477,"right000",1,1477
"994","dsc","22",25,1,"male",4,"z","z",1870,"wrong000",1,1870
"995","dsc","22",25,1,"male",5,"m","m",1535,"right000",1,1535
"996","dsc","22",25,1,"male",6,"z","z",1421,"wrong000",1,1421
"997","dsc","22",25,1,"male",7,"z","z",2023,"wrong000",1,2023
"998","dsc","22",25,1,"male",8,"z","z",1402,"wrong000",1,1402
"999","dsc","22",25,1,"male",9,"m","m",1581,"right000",1,1581
"1000","dsc","22",25,1,"male",10,"z","z",1281,"wrong000",1,1281
"1001","dsc","22",25,1,"male",11,"m","m",1225,"right000",1,1225
"1002","dsc","22",25,1,"male",12,"m","m",1412,"right000",1,1412
"1003","dsc","22",25,1,"male",13,"m","m",990,"right000",1,990
"1004","dsc","22",25,1,"male",14,"z","z",930,"wrong000",1,930
"1005","dsc","22",25,1,"male",15,"m","m",1568,"right000",1,1568
"1006","dsc","22",25,1,"male",16,"m","m",1012,"right000",1,1012
"1007","dsc","22",25,1,"male",17,"m","m",775,"right000",1,775
"1008","dsc","22",25,1,"male",18,"z","z",1388,"wrong000",1,1388
"1009","dsc","22",25,1,"male",19,"z","z",1536,"wrong000",1,1536
"1010","dsc","22",25,1,"male",20,"z","z",886,"wrong000",1,886
"1011","dsc","22",25,1,"male",21,"z","z",733,"wrong000",1,733
"1012","dsc","22",25,1,"male",22,"z","z",1203,"wrong000",1,1203
"1013","dsc","22",25,1,"male",23,"m","m",1406,"right000",1,1406
"1014","dsc","22",25,1,"male",24,"z","z",1218,"wrong000",1,1218
"1015","dsc","22",25,1,"male",25,"z","z",1492,"wrong000",1,1492
"1016","dsc","22",25,1,"male",26,"z","z",796,"wrong000",1,796
"1017","dsc","22",25,1,"male",27,"z","z",1464,"wrong000",1,1464
"1018","dsc","22",25,1,"male",28,"m","m",1208,"right000",1,1208
"1019","dsc","22",25,1,"male",29,"m","m",748,"right000",1,748
"1020","dsc","22",25,1,"male",30,"m","m",961,"right000",1,961
"1021","dsc","22",25,1,"male",31,"m","m",822,"right000",1,822
"1022","dsc","22",25,1,"male",32,"z","z",1288,"wrong000",1,1288
"1023","dsc","22",25,1,"male",33,"z","z",1000,"wrong000",1,1000
"1024","dsc","22",25,1,"male",34,"m","m",787,"right000",1,787
"1025","dsc","22",25,1,"male",35,"z","z",751,"wrong000",1,751
"1026","dsc","22",25,1,"male",36,"z","z",844,"wrong000",1,844
"1027","dsc","22",25,1,"male",37,"z","z",646,"wrong000",1,646
"1028","dsc","22",25,1,"male",38,"z","z",759,"wrong000",1,759
"1029","dsc","22",25,1,"male",39,"m","m",909,"right000",1,909
"1030","dsc","22",25,1,"male",40,"m","m",772,"right000",1,772
"1031","dsc","22",25,1,"male",41,"m","m",1304,"right000",1,1304
"1032","dsc","22",25,1,"male",42,"z","z",759,"wrong000",1,759
"1033","dsc","22",25,1,"male",43,"m","m",1412,"right000",1,1412
"1034","dsc","22",25,1,"male",44,"z","z",768,"wrong000",1,768
"1035","dsc","22",25,1,"male",45,"z","z",732,"wrong000",1,732
"1036","dsc","22",25,1,"male",46,"z","z",1242,"wrong000",1,1242
"1037","dsc","22",25,1,"male",47,"z","z",804,"wrong000",1,804
"1038","dsc","22",25,1,"male",48,"m","m",1023,"right000",1,1023
"1039","dsc","22",25,1,"male",49,"z","z",769,"wrong000",1,769
"1040","dsc","22",25,1,"male",50,"m","m",702,"right000",1,702
"1041","dsc","22",25,1,"male",51,"m","m",989,"right000",1,989
"1042","dsc","22",25,1,"male",52,"z","z",888,"wrong000",1,888
"1043","dsc","22",25,1,"male",53,"m","z",1088,"wrong000",0,1088
"1044","dsc","22",25,1,"male",54,"z","z",1320,"wrong000",1,1320
"1045","dsc","22",25,1,"male",55,"z","z",1286,"wrong000",1,1286
"1046","dsc","22",25,1,"male",56,"m","m",1134,"right000",1,1134
"1047","dsc","22",25,1,"male",57,"m","m",987,"right000",1,987
"1048","dsc","22",25,1,"male",58,"z","z",783,"wrong000",1,783
"1049","dsc","22",25,1,"male",59,"m","m",1011,"right000",1,1011
"1050","dsc","22",25,1,"male",60,"z","z",734,"wrong000",1,734
"1051","dsc","22",25,1,"male",61,"m","m",1068,"right000",1,1068
"1052","dsc","22",25,1,"male",62,"m","m",948,"right000",1,948
"1053","dsc","22",25,1,"male",63,"z","m",769,"wrong000",0,769
"1054","dsc","22",25,1,"male",64,"m","m",1406,"right000",1,1406
"1055","dsc","22",25,1,"male",65,"m","m",1449,"right000",1,1449
"1056","dsc","22",25,1,"male",66,"m","m",762,"right000",1,762
"1057","dsc","22",25,1,"male",67,"m","m",743,"right000",1,743
"1058","dsc","22",25,1,"male",68,"z","z",861,"wrong000",1,861
"1059","dsc","22",25,1,"male",69,"m","m",1606,"right000",1,1606
"1060","dsc","22",25,1,"male",70,"z","z",1306,"wrong000",1,1306
"1061","dsc","22",25,1,"male",71,"m","m",1921,"right000",1,1921
"1062","dsc","22",25,1,"male",72,"z","z",1016,"wrong000",1,1016
"1063","dsc","22",25,1,"male",73,"z","z",1426,"wrong000",1,1426
"1064","dsc","22",25,1,"male",74,"z","z",1477,"wrong000",1,1477
"1065","dsc","22",25,1,"male",75,"z","z",749,"wrong000",1,749
"1066","dsc","22",25,1,"male",76,"m","m",1058,"right000",1,1058
"1067","dsc","22",25,1,"male",77,"m","m",1107,"right000",1,1107
"1068","dsc","22",25,1,"male",78,"z","z",739,"wrong000",1,739
"1069","dsc","22",25,1,"male",79,"m","m",656,"right000",1,656
"1070","dsc","22",25,1,"male",80,"z","z",745,"wrong000",1,745
"1071","dsc","22",25,1,"male",81,"m","m",783,"right000",1,783
"1072","dsc","22",25,1,"male",82,"z","z",619,"wrong000",1,619
"1073","dsc","22",25,1,"male",83,"m","m",1197,"right000",1,1197
"1074","dsc","22",25,1,"male",84,"m","m",792,"right000",1,792
"1075","dsc","22",25,1,"male",85,"m","m",644,"right000",1,644
"1076","dsc","22",25,1,"male",86,"m","m",750,"right000",1,750
"1077","dsc","22",25,1,"male",87,"z","z",955,"wrong000",1,955
"1078","dsc","22",25,1,"male",88,"m","m",968,"right000",1,968
"1079","dsc","22",25,1,"male",89,"m","m",1100,"right000",1,1100
"1080","dsc","22",25,1,"male",90,"m","m",1172,"right000",1,1172
"1081","dsc","23",23,1,"female",1,"z","m",984,"wrong000",0,984
"1082","dsc","23",23,1,"female",2,"m","m",1124,"right000",1,1124
"1083","dsc","23",23,1,"female",3,"z","z",1602,"wrong000",1,1602
"1084","dsc","23",23,1,"female",4,"z","z",1445,"wrong000",1,1445
"1085","dsc","23",23,1,"female",5,"m","m",991,"right000",1,991
"1086","dsc","23",23,1,"female",6,"m","m",1347,"right000",1,1347
"1087","dsc","23",23,1,"female",7,"z","z",1537,"wrong000",1,1537
"1088","dsc","23",23,1,"female",8,"m","m",911,"right000",1,911
"1089","dsc","23",23,1,"female",9,"z","z",1406,"wrong000",1,1406
"1090","dsc","23",23,1,"female",10,"m","m",913,"right000",1,913
"1091","dsc","23",23,1,"female",11,"z","z",1447,"wrong000",1,1447
"1092","dsc","23",23,1,"female",12,"z","z",976,"wrong000",1,976
"1093","dsc","23",23,1,"female",13,"m","m",1141,"right000",1,1141
"1094","dsc","23",23,1,"female",14,"z","z",1147,"wrong000",1,1147
"1095","dsc","23",23,1,"female",15,"m","m",840,"right000",1,840
"1096","dsc","23",23,1,"female",16,"m","m",1434,"right000",1,1434
"1097","dsc","23",23,1,"female",17,"m","m",772,"right000",1,772
"1098","dsc","23",23,1,"female",18,"m","m",1056,"right000",1,1056
"1099","dsc","23",23,1,"female",19,"m","m",833,"right000",1,833
"1100","dsc","23",23,1,"female",20,"z","z",1475,"wrong000",1,1475
"1101","dsc","23",23,1,"female",21,"z","z",1764,"wrong000",1,1764
"1102","dsc","23",23,1,"female",22,"z","z",968,"wrong000",1,968
"1103","dsc","23",23,1,"female",23,"z","z",1005,"wrong000",1,1005
"1104","dsc","23",23,1,"female",24,"m","m",696,"right000",1,696
"1105","dsc","23",23,1,"female",25,"m","m",928,"right000",1,928
"1106","dsc","23",23,1,"female",26,"z","z",1302,"wrong000",1,1302
"1107","dsc","23",23,1,"female",27,"z","z",1141,"wrong000",1,1141
"1108","dsc","23",23,1,"female",28,"m","m",867,"right000",1,867
"1109","dsc","23",23,1,"female",29,"z","z",1156,"wrong000",1,1156
"1110","dsc","23",23,1,"female",30,"z","z",897,"wrong000",1,897
"1111","dsc","23",23,1,"female",31,"m","m",1185,"right000",1,1185
"1112","dsc","23",23,1,"female",32,"m","m",972,"right000",1,972
"1113","dsc","23",23,1,"female",33,"z","z",1361,"wrong000",1,1361
"1114","dsc","23",23,1,"female",34,"m","m",1038,"right000",1,1038
"1115","dsc","23",23,1,"female",35,"z","z",1016,"wrong000",1,1016
"1116","dsc","23",23,1,"female",36,"z","z",938,"wrong000",1,938
"1117","dsc","23",23,1,"female",37,"z","z",984,"wrong000",1,984
"1118","dsc","23",23,1,"female",38,"m","m",1252,"right000",1,1252
"1119","dsc","23",23,1,"female",39,"m","m",989,"right000",1,989
"1120","dsc","23",23,1,"female",40,"m","m",1033,"right000",1,1033
"1121","dsc","23",23,1,"female",41,"m","m",1227,"right000",1,1227
"1122","dsc","23",23,1,"female",42,"z","z",741,"wrong000",1,741
"1123","dsc","23",23,1,"female",43,"z","z",1066,"wrong000",1,1066
"1124","dsc","23",23,1,"female",44,"z","z",1020,"wrong000",1,1020
"1125","dsc","23",23,1,"female",45,"m","m",837,"right000",1,837
"1126","dsc","23",23,1,"female",46,"m","m",1343,"right000",1,1343
"1127","dsc","23",23,1,"female",47,"m","m",909,"right000",1,909
"1128","dsc","23",23,1,"female",48,"z","z",852,"wrong000",1,852
"1129","dsc","23",23,1,"female",49,"z","z",949,"wrong000",1,949
"1130","dsc","23",23,1,"female",50,"m","m",1114,"right000",1,1114
"1131","dsc","23",23,1,"female",51,"z","z",1217,"wrong000",1,1217
"1132","dsc","23",23,1,"female",52,"z","z",1011,"wrong000",1,1011
"1133","dsc","23",23,1,"female",53,"m","m",918,"right000",1,918
"1134","dsc","23",23,1,"female",54,"m","m",741,"right000",1,741
"1135","dsc","23",23,1,"female",55,"z","z",739,"wrong000",1,739
"1136","dsc","23",23,1,"female",56,"m","m",824,"right000",1,824
"1137","dsc","23",23,1,"female",57,"m","m",1027,"right000",1,1027
"1138","dsc","23",23,1,"female",58,"z","z",845,"wrong000",1,845
"1139","dsc","23",23,1,"female",59,"z","z",703,"wrong000",1,703
"1140","dsc","23",23,1,"female",60,"m","m",822,"right000",1,822
"1141","dsc","23",23,1,"female",61,"m","m",1192,"right000",1,1192
"1142","dsc","23",23,1,"female",62,"m","m",700,"right000",1,700
"1143","dsc","23",23,1,"female",63,"m","m",939,"right000",1,939
"1144","dsc","23",23,1,"female",64,"z","z",1305,"wrong000",1,1305
"1145","dsc","23",23,1,"female",65,"m","m",800,"right000",1,800
"1146","dsc","23",23,1,"female",66,"m","m",988,"right000",1,988
"1147","dsc","23",23,1,"female",67,"z","z",879,"wrong000",1,879
"1148","dsc","23",23,1,"female",68,"m","z",1128,"wrong000",0,1128
"1149","dsc","23",23,1,"female",69,"m","m",846,"right000",1,846
"1150","dsc","23",23,1,"female",70,"z","z",880,"wrong000",1,880
"1151","dsc","23",23,1,"female",71,"z","z",1864,"wrong000",1,1864
"1152","dsc","23",23,1,"female",72,"z","z",905,"wrong000",1,905
"1153","dsc","23",23,1,"female",73,"m","m",904,"right000",1,904
"1154","dsc","23",23,1,"female",74,"z","z",839,"wrong000",1,839
"1155","dsc","23",23,1,"female",75,"m","m",913,"right000",1,913
"1156","dsc","23",23,1,"female",76,"m","m",704,"right000",1,704
"1157","dsc","23",23,1,"female",77,"z","z",895,"wrong000",1,895
"1158","dsc","23",23,1,"female",78,"z","z",1183,"wrong000",1,1183
"1159","dsc","23",23,1,"female",79,"z","z",850,"wrong000",1,850
"1160","dsc","23",23,1,"female",80,"m","z",1219,"right000",0,1219
"1161","dsc","23",23,1,"female",81,"m","m",678,"right000",1,678
"1162","dsc","23",23,1,"female",82,"z","z",1094,"wrong000",1,1094
"1163","dsc","23",23,1,"female",83,"z","z",798,"wrong000",1,798
"1164","dsc","23",23,1,"female",84,"z","z",897,"wrong000",1,897
"1165","dsc","23",23,1,"female",85,"z","z",776,"wrong000",1,776
"1166","dsc","23",23,1,"female",86,"m","m",901,"right000",1,901
"1167","dsc","23",23,1,"female",87,"m","m",772,"right000",1,772
"1168","dsc","23",23,1,"female",88,"m","m",1384,"right000",1,1384
"1169","dsc","23",23,1,"female",89,"z","z",796,"wrong000",1,796
"1170","dsc","23",23,1,"female",90,"m","m",1152,"right000",1,1152
"1171","dsc","24",25,1,"female",1,"z","z",2005,"wrong000",1,2005
"1172","dsc","24",25,1,"female",2,"m","m",1711,"right000",1,1711
"1173","dsc","24",25,1,"female",3,"z","z",1215,"wrong000",1,1215
"1174","dsc","24",25,1,"female",4,"m","m",1009,"right000",1,1009
"1175","dsc","24",25,1,"female",5,"m","m",1100,"right000",1,1100
"1176","dsc","24",25,1,"female",6,"z","z",1219,"wrong000",1,1219
"1177","dsc","24",25,1,"female",7,"m","m",1222,"right000",1,1222
"1178","dsc","24",25,1,"female",8,"z","z",920,"wrong000",1,920
"1179","dsc","24",25,1,"female",9,"z","z",1119,"wrong000",1,1119
"1180","dsc","24",25,1,"female",10,"z","z",885,"wrong000",1,885
"1181","dsc","24",25,1,"female",11,"z","z",1021,"wrong000",1,1021
"1182","dsc","24",25,1,"female",12,"z","z",1872,"wrong000",1,1872
"1183","dsc","24",25,1,"female",13,"z","z",1240,"wrong000",1,1240
"1184","dsc","24",25,1,"female",14,"m","m",1090,"right000",1,1090
"1185","dsc","24",25,1,"female",15,"z","z",1202,"wrong000",1,1202
"1186","dsc","24",25,1,"female",16,"z","z",1229,"wrong000",1,1229
"1187","dsc","24",25,1,"female",17,"m","m",784,"right000",1,784
"1188","dsc","24",25,1,"female",18,"m","m",1604,"right000",1,1604
"1189","dsc","24",25,1,"female",19,"z","z",879,"wrong000",1,879
"1190","dsc","24",25,1,"female",20,"m","m",1151,"right000",1,1151
"1191","dsc","24",25,1,"female",21,"m","z",1604,"wrong000",0,1604
"1192","dsc","24",25,1,"female",22,"m","m",1448,"right000",1,1448
"1193","dsc","24",25,1,"female",23,"m","m",1097,"right000",1,1097
"1194","dsc","24",25,1,"female",24,"m","m",816,"right000",1,816
"1195","dsc","24",25,1,"female",25,"m","m",923,"right000",1,923
"1196","dsc","24",25,1,"female",26,"m","m",801,"right000",1,801
"1197","dsc","24",25,1,"female",27,"z","z",908,"wrong000",1,908
"1198","dsc","24",25,1,"female",28,"m","m",923,"right000",1,923
"1199","dsc","24",25,1,"female",29,"m","m",1394,"right000",1,1394
"1200","dsc","24",25,1,"female",30,"z","z",902,"wrong000",1,902
"1201","dsc","24",25,1,"female",31,"z","m",989,"wrong000",0,989
"1202","dsc","24",25,1,"female",32,"z","z",1777,"wrong000",1,1777
"1203","dsc","24",25,1,"female",33,"z","z",989,"wrong000",1,989
"1204","dsc","24",25,1,"female",34,"z","z",1689,"wrong000",1,1689
"1205","dsc","24",25,1,"female",35,"m","m",1289,"right000",1,1289
"1206","dsc","24",25,1,"female",36,"m","m",817,"right000",1,817
"1207","dsc","24",25,1,"female",37,"z","z",835,"wrong000",1,835
"1208","dsc","24",25,1,"female",38,"m","m",1469,"right000",1,1469
"1209","dsc","24",25,1,"female",39,"z","z",1718,"wrong000",1,1718
"1210","dsc","24",25,1,"female",40,"m","m",1108,"right000",1,1108
"1211","dsc","24",25,1,"female",41,"z","z",1580,"wrong000",1,1580
"1212","dsc","24",25,1,"female",42,"z","z",888,"wrong000",1,888
"1213","dsc","24",25,1,"female",43,"m","m",1032,"right000",1,1032
"1214","dsc","24",25,1,"female",44,"m","m",1122,"right000",1,1122
"1215","dsc","24",25,1,"female",45,"m","m",880,"right000",1,880
"1216","dsc","24",25,1,"female",46,"m","m",1040,"right000",1,1040
"1217","dsc","24",25,1,"female",47,"z","z",898,"wrong000",1,898
"1218","dsc","24",25,1,"female",48,"m","m",1521,"right000",1,1521
"1219","dsc","24",25,1,"female",49,"m","m",944,"right000",1,944
"1220","dsc","24",25,1,"female",50,"m","m",1149,"right000",1,1149
"1221","dsc","24",25,1,"female",51,"z","z",1107,"wrong000",1,1107
"1222","dsc","24",25,1,"female",52,"m","m",1154,"right000",1,1154
"1223","dsc","24",25,1,"female",53,"z","z",1663,"wrong000",1,1663
"1224","dsc","24",25,1,"female",54,"m","m",800,"right000",1,800
"1225","dsc","24",25,1,"female",55,"m","m",850,"right000",1,850
"1226","dsc","24",25,1,"female",56,"m","m",731,"right000",1,731
"1227","dsc","24",25,1,"female",57,"m","m",905,"right000",1,905
"1228","dsc","24",25,1,"female",58,"z","z",968,"wrong000",1,968
"1229","dsc","24",25,1,"female",59,"z","z",1573,"wrong000",1,1573
"1230","dsc","24",25,1,"female",60,"m","m",1337,"right000",1,1337
"1231","dsc","24",25,1,"female",61,"m","m",903,"right000",1,903
"1232","dsc","24",25,1,"female",62,"z","z",1254,"wrong000",1,1254
"1233","dsc","24",25,1,"female",63,"m","m",1904,"right000",1,1904
"1234","dsc","24",25,1,"female",64,"z","z",1271,"wrong000",1,1271
"1235","dsc","24",25,1,"female",65,"m","m",968,"right000",1,968
"1236","dsc","24",25,1,"female",66,"m","m",1244,"right000",1,1244
"1237","dsc","24",25,1,"female",67,"z","z",1158,"wrong000",1,1158
"1238","dsc","24",25,1,"female",68,"z","z",907,"wrong000",1,907
"1239","dsc","24",25,1,"female",69,"m","m",1450,"right000",1,1450
"1240","dsc","24",25,1,"female",70,"z","z",1299,"wrong000",1,1299
"1241","dsc","24",25,1,"female",71,"z","z",1187,"wrong000",1,1187
"1242","dsc","24",25,1,"female",72,"m","m",1054,"right000",1,1054
"1243","dsc","24",25,1,"female",73,"z","z",920,"wrong000",1,920
"1244","dsc","24",25,1,"female",74,"m","m",806,"right000",1,806
"1245","dsc","24",25,1,"female",75,"z","z",1561,"wrong000",1,1561
"1246","dsc","24",25,1,"female",76,"m","m",982,"right000",1,982
"1247","dsc","24",25,1,"female",77,"z","z",1218,"wrong000",1,1218
"1248","dsc","24",25,1,"female",78,"z","z",1085,"wrong000",1,1085
"1249","dsc","24",25,1,"female",79,"m","m",1133,"right000",1,1133
"1250","dsc","24",25,1,"female",80,"z","z",1506,"wrong000",1,1506
"1251","dsc","24",25,1,"female",81,"z","z",1034,"wrong000",1,1034
"1252","dsc","24",25,1,"female",82,"z","z",732,"wrong000",1,732
"1253","dsc","24",25,1,"female",83,"m","m",889,"right000",1,889
"1254","dsc","24",25,1,"female",84,"m","m",849,"right000",1,849
"1255","dsc","24",25,1,"female",85,"z","z",962,"wrong000",1,962
"1256","dsc","24",25,1,"female",86,"z","z",951,"wrong000",1,951
"1257","dsc","24",25,1,"female",87,"z","z",948,"wrong000",1,948
"1258","dsc","24",25,1,"female",88,"m","m",841,"right000",1,841
"1259","dsc","24",25,1,"female",89,"z","z",811,"wrong000",1,811
"1260","dsc","24",25,1,"female",90,"m","z",974,"right000",0,974
"1261","dsc","25",23,1,"female",1,"m","m",3080,"right000",1,NA
"1262","dsc","25",23,1,"female",2,"m","m",1047,"right000",1,1047
"1263","dsc","25",23,1,"female",3,"z","z",1225,"wrong000",1,1225
"1264","dsc","25",23,1,"female",4,"m","m",1067,"right000",1,1067
"1265","dsc","25",23,1,"female",5,"z","z",1220,"wrong000",1,1220
"1266","dsc","25",23,1,"female",6,"m","m",1534,"right000",1,1534
"1267","dsc","25",23,1,"female",7,"z","z",2500,"wrong000",1,NA
"1268","dsc","25",23,1,"female",8,"z","z",1588,"wrong000",1,1588
"1269","dsc","25",23,1,"female",9,"z","z",2752,"wrong000",1,NA
"1270","dsc","25",23,1,"female",10,"z","z",1453,"wrong000",1,1453
"1271","dsc","25",23,1,"female",11,"z","z",983,"wrong000",1,983
"1272","dsc","25",23,1,"female",12,"z","z",779,"wrong000",1,779
"1273","dsc","25",23,1,"female",13,"m","m",1159,"right000",1,1159
"1274","dsc","25",23,1,"female",14,"m","m",1204,"right000",1,1204
"1275","dsc","25",23,1,"female",15,"z","z",927,"wrong000",1,927
"1276","dsc","25",23,1,"female",16,"z","z",1126,"wrong000",1,1126
"1277","dsc","25",23,1,"female",17,"m","m",1212,"right000",1,1212
"1278","dsc","25",23,1,"female",18,"z","z",1159,"wrong000",1,1159
"1279","dsc","25",23,1,"female",19,"m","m",1045,"right000",1,1045
"1280","dsc","25",23,1,"female",20,"m","m",942,"right000",1,942
"1281","dsc","25",23,1,"female",21,"m","m",1212,"right000",1,1212
"1282","dsc","25",23,1,"female",22,"z","z",871,"wrong000",1,871
"1283","dsc","25",23,1,"female",23,"m","m",840,"right000",1,840
"1284","dsc","25",23,1,"female",24,"m","m",818,"right000",1,818
"1285","dsc","25",23,1,"female",25,"z","z",1412,"wrong000",1,1412
"1286","dsc","25",23,1,"female",26,"z","z",1119,"wrong000",1,1119
"1287","dsc","25",23,1,"female",27,"z","z",1014,"wrong000",1,1014
"1288","dsc","25",23,1,"female",28,"m","m",1176,"right000",1,1176
"1289","dsc","25",23,1,"female",29,"m","m",1101,"right000",1,1101
"1290","dsc","25",23,1,"female",30,"m","m",964,"right000",1,964
"1291","dsc","25",23,1,"female",31,"z","z",1248,"wrong000",1,1248
"1292","dsc","25",23,1,"female",32,"m","m",1178,"right000",1,1178
"1293","dsc","25",23,1,"female",33,"m","m",814,"right000",1,814
"1294","dsc","25",23,1,"female",34,"z","z",1241,"wrong000",1,1241
"1295","dsc","25",23,1,"female",35,"m","m",819,"right000",1,819
"1296","dsc","25",23,1,"female",36,"m","m",837,"right000",1,837
"1297","dsc","25",23,1,"female",37,"z","z",879,"wrong000",1,879
"1298","dsc","25",23,1,"female",38,"m","m",895,"right000",1,895
"1299","dsc","25",23,1,"female",39,"z","z",758,"wrong000",1,758
"1300","dsc","25",23,1,"female",40,"m","m",819,"right000",1,819
"1301","dsc","25",23,1,"female",41,"m","m",581,"right000",1,581
"1302","dsc","25",23,1,"female",42,"m","m",897,"right000",1,897
"1303","dsc","25",23,1,"female",43,"z","z",1032,"wrong000",1,1032
"1304","dsc","25",23,1,"female",44,"m","m",906,"right000",1,906
"1305","dsc","25",23,1,"female",45,"m","m",1217,"right000",1,1217
"1306","dsc","25",23,1,"female",46,"z","z",844,"wrong000",1,844
"1307","dsc","25",23,1,"female",47,"z","z",845,"wrong000",1,845
"1308","dsc","25",23,1,"female",48,"m","m",951,"right000",1,951
"1309","dsc","25",23,1,"female",49,"m","m",1076,"right000",1,1076
"1310","dsc","25",23,1,"female",50,"z","z",621,"wrong000",1,621
"1311","dsc","25",23,1,"female",51,"m","m",1151,"right000",1,1151
"1312","dsc","25",23,1,"female",52,"z","z",676,"wrong000",1,676
"1313","dsc","25",23,1,"female",53,"m","z",509,"right000",0,509
"1314","dsc","25",23,1,"female",54,"z","z",1980,"wrong000",1,1980
"1315","dsc","25",23,1,"female",55,"z","z",752,"wrong000",1,752
"1316","dsc","25",23,1,"female",56,"z","z",773,"wrong000",1,773
"1317","dsc","25",23,1,"female",57,"m","m",1041,"right000",1,1041
"1318","dsc","25",23,1,"female",58,"z","z",779,"wrong000",1,779
"1319","dsc","25",23,1,"female",59,"z","m",1223,"wrong000",0,1223
"1320","dsc","25",23,1,"female",60,"m","m",978,"right000",1,978
"1321","dsc","25",23,1,"female",61,"z","z",590,"wrong000",1,590
"1322","dsc","25",23,1,"female",62,"z","z",698,"wrong000",1,698
"1323","dsc","25",23,1,"female",63,"z","z",1353,"wrong000",1,1353
"1324","dsc","25",23,1,"female",64,"m","m",790,"right000",1,790
"1325","dsc","25",23,1,"female",65,"z","z",594,"wrong000",1,594
"1326","dsc","25",23,1,"female",66,"m","m",1238,"right000",1,1238
"1327","dsc","25",23,1,"female",67,"m","m",1176,"right000",1,1176
"1328","dsc","25",23,1,"female",68,"z","z",636,"wrong000",1,636
"1329","dsc","25",23,1,"female",69,"m","m",1094,"right000",1,1094
"1330","dsc","25",23,1,"female",70,"z","z",662,"wrong000",1,662
"1331","dsc","25",23,1,"female",71,"m","m",1191,"right000",1,1191
"1332","dsc","25",23,1,"female",72,"m","z",891,"wrong000",0,891
"1333","dsc","25",23,1,"female",73,"m","m",946,"right000",1,946
"1334","dsc","25",23,1,"female",74,"z","z",1040,"wrong000",1,1040
"1335","dsc","25",23,1,"female",75,"m","m",1026,"right000",1,1026
"1336","dsc","25",23,1,"female",76,"z","z",1061,"wrong000",1,1061
"1337","dsc","25",23,1,"female",77,"z","z",670,"wrong000",1,670
"1338","dsc","25",23,1,"female",78,"z","z",1126,"wrong000",1,1126
"1339","dsc","25",23,1,"female",79,"z","z",820,"wrong000",1,820
"1340","dsc","25",23,1,"female",80,"z","z",742,"wrong000",1,742
"1341","dsc","25",23,1,"female",81,"z","z",748,"wrong000",1,748
"1342","dsc","25",23,1,"female",82,"m","m",1057,"right000",1,1057
"1343","dsc","25",23,1,"female",83,"z","z",698,"wrong000",1,698
"1344","dsc","25",23,1,"female",84,"m","m",1065,"right000",1,1065
"1345","dsc","25",23,1,"female",85,"m","m",930,"right000",1,930
"1346","dsc","25",23,1,"female",86,"m","m",791,"right000",1,791
"1347","dsc","25",23,1,"female",87,"m","m",811,"right000",1,811
"1348","dsc","25",23,1,"female",88,"z","z",846,"wrong000",1,846
"1349","dsc","25",23,1,"female",89,"m","m",1296,"right000",1,1296
"1350","dsc","25",23,1,"female",90,"m","m",808,"right000",1,808
"1351","dsc","26",32,1,"male",1,"m","m",2416,"right000",1,2416
"1352","dsc","26",32,1,"male",2,"z","z",2027,"wrong000",1,2027
"1353","dsc","26",32,1,"male",3,"z","z",1941,"wrong000",1,1941
"1354","dsc","26",32,1,"male",4,"m","m",2779,"right000",1,NA
"1355","dsc","26",32,1,"male",5,"m","m",2952,"right000",1,NA
"1356","dsc","26",32,1,"male",6,"m","m",1286,"right000",1,1286
"1357","dsc","26",32,1,"male",7,"m","m",1246,"right000",1,1246
"1358","dsc","26",32,1,"male",8,"z","z",1688,"wrong000",1,1688
"1359","dsc","26",32,1,"male",9,"z","m",2040,"wrong000",0,2040
"1360","dsc","26",32,1,"male",10,"m","z",3530,"wrong000",0,NA
"1361","dsc","26",32,1,"male",11,"m","m",2089,"right000",1,2089
"1362","dsc","26",32,1,"male",12,"m","m",1817,"right000",1,1817
"1363","dsc","26",32,1,"male",13,"m","m",955,"right000",1,955
"1364","dsc","26",32,1,"male",14,"m","m",1753,"right000",1,1753
"1365","dsc","26",32,1,"male",15,"z","z",2798,"wrong000",1,NA
"1366","dsc","26",32,1,"male",16,"m","m",1858,"right000",1,1858
"1367","dsc","26",32,1,"male",17,"z","z",2090,"wrong000",1,2090
"1368","dsc","26",32,1,"male",18,"m","m",2658,"right000",1,NA
"1369","dsc","26",32,1,"male",19,"m","m",2364,"right000",1,2364
"1370","dsc","26",32,1,"male",20,"z","z",2289,"wrong000",1,2289
"1371","dsc","26",32,1,"male",21,"m","m",1865,"right000",1,1865
"1372","dsc","26",32,1,"male",22,"z","z",2666,"wrong000",1,NA
"1373","dsc","26",32,1,"male",23,"m","m",1699,"right000",1,1699
"1374","dsc","26",32,1,"male",24,"m","m",1826,"right000",1,1826
"1375","dsc","26",32,1,"male",25,"m","m",1557,"right000",1,1557
"1376","dsc","26",32,1,"male",26,"z","z",2482,"wrong000",1,NA
"1377","dsc","26",32,1,"male",27,"m","m",1610,"right000",1,1610
"1378","dsc","26",32,1,"male",28,"z","z",1278,"wrong000",1,1278
"1379","dsc","26",32,1,"male",29,"m","m",1574,"right000",1,1574
"1380","dsc","26",32,1,"male",30,"m","m",1667,"right000",1,1667
"1381","dsc","26",32,1,"male",31,"z","z",1707,"wrong000",1,1707
"1382","dsc","26",32,1,"male",32,"z","z",1531,"wrong000",1,1531
"1383","dsc","26",32,1,"male",33,"z","z",1281,"wrong000",1,1281
"1384","dsc","26",32,1,"male",34,"m","m",1561,"right000",1,1561
"1385","dsc","26",32,1,"male",35,"m","m",1590,"right000",1,1590
"1386","dsc","26",32,1,"male",36,"z","z",2506,"wrong000",1,NA
"1387","dsc","26",32,1,"male",37,"z","m",1441,"wrong000",0,1441
"1388","dsc","26",32,1,"male",38,"z","z",2723,"wrong000",1,NA
"1389","dsc","26",32,1,"male",39,"z","z",2306,"wrong000",1,2306
"1390","dsc","26",32,1,"male",40,"m","m",1242,"right000",1,1242
"1391","dsc","26",32,1,"male",41,"m","m",1516,"right000",1,1516
"1392","dsc","26",32,1,"male",42,"z","z",1850,"wrong000",1,1850
"1393","dsc","26",32,1,"male",43,"m","m",1484,"right000",1,1484
"1394","dsc","26",32,1,"male",44,"z","z",2724,"wrong000",1,NA
"1395","dsc","26",32,1,"male",45,"m","m",1075,"right000",1,1075
"1396","dsc","26",32,1,"male",46,"z","z",2195,"wrong000",1,2195
"1397","dsc","26",32,1,"male",47,"m","m",1951,"right000",1,1951
"1398","dsc","26",32,1,"male",48,"m","m",2109,"right000",1,2109
"1399","dsc","26",32,1,"male",49,"m","m",1580,"right000",1,1580
"1400","dsc","26",32,1,"male",50,"m","m",1784,"right000",1,1784
"1401","dsc","26",32,1,"male",51,"z","z",1756,"wrong000",1,1756
"1402","dsc","26",32,1,"male",52,"m","m",1746,"right000",1,1746
"1403","dsc","26",32,1,"male",53,"z","z",2007,"wrong000",1,2007
"1404","dsc","26",32,1,"male",54,"z","z",1803,"wrong000",1,1803
"1405","dsc","26",32,1,"male",55,"m","m",1606,"right000",1,1606
"1406","dsc","26",32,1,"male",56,"m","m",1921,"right000",1,1921
"1407","dsc","26",32,1,"male",57,"z","z",1960,"wrong000",1,1960
"1408","dsc","26",32,1,"male",58,"z","z",2445,"wrong000",1,2445
"1409","dsc","26",32,1,"male",59,"z","z",2263,"wrong000",1,2263
"1410","dsc","26",32,1,"male",60,"m","m",1672,"right000",1,1672
"1411","dsc","26",32,1,"male",61,"m","m",3145,"right000",1,NA
"1412","dsc","26",32,1,"male",62,"z","z",1999,"wrong000",1,1999
"1413","dsc","26",32,1,"male",63,"z","z",2323,"wrong000",1,2323
"1414","dsc","26",32,1,"male",64,"z","z",1562,"wrong000",1,1562
"1415","dsc","26",32,1,"male",65,"z","z",1983,"wrong000",1,1983
"1416","dsc","26",32,1,"male",66,"z","z",1619,"wrong000",1,1619
"1417","dsc","26",32,1,"male",67,"m","m",1870,"right000",1,1870
"1418","dsc","26",32,1,"male",68,"z","z",2062,"wrong000",1,2062
"1419","dsc","26",32,1,"male",69,"m","m",1592,"right000",1,1592
"1420","dsc","26",32,1,"male",70,"z","z",2284,"wrong000",1,2284
"1421","dsc","26",32,1,"male",71,"m","m",1540,"right000",1,1540
"1422","dsc","26",32,1,"male",72,"z","z",2154,"wrong000",1,2154
"1423","dsc","26",32,1,"male",73,"m","m",1751,"right000",1,1751
"1424","dsc","26",32,1,"male",74,"m","m",1165,"right000",1,1165
"1425","dsc","26",32,1,"male",75,"z","z",1385,"wrong000",1,1385
"1426","dsc","26",32,1,"male",76,"m","m",2109,"right000",1,2109
"1427","dsc","26",32,1,"male",77,"m","m",1909,"right000",1,1909
"1428","dsc","26",32,1,"male",78,"m","m",2748,"right000",1,NA
"1429","dsc","26",32,1,"male",79,"z","z",2018,"wrong000",1,2018
"1430","dsc","26",32,1,"male",80,"z","z",1989,"wrong000",1,1989
"1431","dsc","26",32,1,"male",81,"z","z",3137,"wrong000",1,NA
"1432","dsc","26",32,1,"male",82,"m","m",1535,"right000",1,1535
"1433","dsc","26",32,1,"male",83,"z","z",2605,"wrong000",1,NA
"1434","dsc","26",32,1,"male",84,"m","m",1729,"right000",1,1729
"1435","dsc","26",32,1,"male",85,"z","z",1527,"wrong000",1,1527
"1436","dsc","26",32,1,"male",86,"m","m",2526,"right000",1,NA
"1437","dsc","26",32,1,"male",87,"z","z",2429,"wrong000",1,2429
"1438","dsc","26",32,1,"male",88,"z","z",1272,"wrong000",1,1272
"1439","dsc","26",32,1,"male",89,"z","z",1168,"wrong000",1,1168
"1440","dsc","26",32,1,"male",90,"z","z",2461,"wrong000",1,2461
"1441","dsc","27",24,1,"male",1,"m","m",855,"right000",1,855
"1442","dsc","27",24,1,"male",2,"m","m",1280,"right000",1,1280
"1443","dsc","27",24,1,"male",3,"m","m",953,"right000",1,953
"1444","dsc","27",24,1,"male",4,"m","m",702,"right000",1,702
"1445","dsc","27",24,1,"male",5,"z","z",933,"wrong000",1,933
"1446","dsc","27",24,1,"male",6,"z","z",1419,"wrong000",1,1419
"1447","dsc","27",24,1,"male",7,"z","z",1061,"wrong000",1,1061
"1448","dsc","27",24,1,"male",8,"z","z",1014,"wrong000",1,1014
"1449","dsc","27",24,1,"male",9,"m","m",809,"right000",1,809
"1450","dsc","27",24,1,"male",10,"z","z",1324,"wrong000",1,1324
"1451","dsc","27",24,1,"male",11,"z","z",946,"wrong000",1,946
"1452","dsc","27",24,1,"male",12,"z","z",1431,"wrong000",1,1431
"1453","dsc","27",24,1,"male",13,"z","z",1377,"wrong000",1,1377
"1454","dsc","27",24,1,"male",14,"m","m",934,"right000",1,934
"1455","dsc","27",24,1,"male",15,"m","z",1091,"wrong000",0,1091
"1456","dsc","27",24,1,"male",16,"z","z",947,"wrong000",1,947
"1457","dsc","27",24,1,"male",17,"z","z",1552,"wrong000",1,1552
"1458","dsc","27",24,1,"male",18,"m","m",998,"right000",1,998
"1459","dsc","27",24,1,"male",19,"z","z",977,"wrong000",1,977
"1460","dsc","27",24,1,"male",20,"z","z",1237,"wrong000",1,1237
"1461","dsc","27",24,1,"male",21,"z","z",1031,"wrong000",1,1031
"1462","dsc","27",24,1,"male",22,"z","z",1633,"wrong000",1,1633
"1463","dsc","27",24,1,"male",23,"z","z",755,"wrong000",1,755
"1464","dsc","27",24,1,"male",24,"z","z",776,"wrong000",1,776
"1465","dsc","27",24,1,"male",25,"m","z",812,"right000",0,812
"1466","dsc","27",24,1,"male",26,"m","m",736,"right000",1,736
"1467","dsc","27",24,1,"male",27,"z","z",925,"wrong000",1,925
"1468","dsc","27",24,1,"male",28,"z","z",1300,"wrong000",1,1300
"1469","dsc","27",24,1,"male",29,"z","z",1259,"wrong000",1,1259
"1470","dsc","27",24,1,"male",30,"m","m",788,"right000",1,788
"1471","dsc","27",24,1,"male",31,"m","m",960,"right000",1,960
"1472","dsc","27",24,1,"male",32,"m","m",701,"right000",1,701
"1473","dsc","27",24,1,"male",33,"z","z",972,"wrong000",1,972
"1474","dsc","27",24,1,"male",34,"m","m",800,"right000",1,800
"1475","dsc","27",24,1,"male",35,"z","z",796,"wrong000",1,796
"1476","dsc","27",24,1,"male",36,"z","z",1143,"wrong000",1,1143
"1477","dsc","27",24,1,"male",37,"z","z",909,"wrong000",1,909
"1478","dsc","27",24,1,"male",38,"m","m",1148,"right000",1,1148
"1479","dsc","27",24,1,"male",39,"z","m",1169,"wrong000",0,1169
"1480","dsc","27",24,1,"male",40,"z","z",1582,"wrong000",1,1582
"1481","dsc","27",24,1,"male",41,"m","m",1378,"right000",1,1378
"1482","dsc","27",24,1,"male",42,"m","m",654,"right000",1,654
"1483","dsc","27",24,1,"male",43,"m","m",816,"right000",1,816
"1484","dsc","27",24,1,"male",44,"m","m",898,"right000",1,898
"1485","dsc","27",24,1,"male",45,"m","m",737,"right000",1,737
"1486","dsc","27",24,1,"male",46,"m","m",639,"right000",1,639
"1487","dsc","27",24,1,"male",47,"z","z",752,"wrong000",1,752
"1488","dsc","27",24,1,"male",48,"z","z",709,"wrong000",1,709
"1489","dsc","27",24,1,"male",49,"z","z",709,"wrong000",1,709
"1490","dsc","27",24,1,"male",50,"m","m",908,"right000",1,908
"1491","dsc","27",24,1,"male",51,"z","z",955,"wrong000",1,955
"1492","dsc","27",24,1,"male",52,"m","m",1376,"right000",1,1376
"1493","dsc","27",24,1,"male",53,"m","m",780,"right000",1,780
"1494","dsc","27",24,1,"male",54,"z","z",872,"wrong000",1,872
"1495","dsc","27",24,1,"male",55,"z","z",849,"wrong000",1,849
"1496","dsc","27",24,1,"male",56,"m","m",1586,"right000",1,1586
"1497","dsc","27",24,1,"male",57,"z","z",950,"wrong000",1,950
"1498","dsc","27",24,1,"male",58,"z","z",1107,"wrong000",1,1107
"1499","dsc","27",24,1,"male",59,"m","m",906,"right000",1,906
"1500","dsc","27",24,1,"male",60,"z","z",873,"wrong000",1,873
"1501","dsc","27",24,1,"male",61,"z","z",1017,"wrong000",1,1017
"1502","dsc","27",24,1,"male",62,"m","m",1044,"right000",1,1044
"1503","dsc","27",24,1,"male",63,"m","z",974,"right000",0,974
"1504","dsc","27",24,1,"male",64,"m","m",650,"right000",1,650
"1505","dsc","27",24,1,"male",65,"z","z",979,"wrong000",1,979
"1506","dsc","27",24,1,"male",66,"m","m",824,"right000",1,824
"1507","dsc","27",24,1,"male",67,"m","m",1026,"right000",1,1026
"1508","dsc","27",24,1,"male",68,"z","z",1037,"wrong000",1,1037
"1509","dsc","27",24,1,"male",69,"m","m",766,"right000",1,766
"1510","dsc","27",24,1,"male",70,"m","m",1338,"right000",1,1338
"1511","dsc","27",24,1,"male",71,"m","m",488,"right000",1,488
"1512","dsc","27",24,1,"male",72,"z","z",847,"wrong000",1,847
"1513","dsc","27",24,1,"male",73,"m","m",856,"right000",1,856
"1514","dsc","27",24,1,"male",74,"m","m",905,"right000",1,905
"1515","dsc","27",24,1,"male",75,"m","m",521,"right000",1,521
"1516","dsc","27",24,1,"male",76,"z","z",919,"wrong000",1,919
"1517","dsc","27",24,1,"male",77,"z","z",1189,"wrong000",1,1189
"1518","dsc","27",24,1,"male",78,"m","m",801,"right000",1,801
"1519","dsc","27",24,1,"male",79,"m","m",668,"right000",1,668
"1520","dsc","27",24,1,"male",80,"z","m",997,"wrong000",0,997
"1521","dsc","27",24,1,"male",81,"z","z",1368,"wrong000",1,1368
"1522","dsc","27",24,1,"male",82,"m","m",1460,"right000",1,1460
"1523","dsc","27",24,1,"male",83,"m","m",758,"right000",1,758
"1524","dsc","27",24,1,"male",84,"m","m",699,"right000",1,699
"1525","dsc","27",24,1,"male",85,"m","m",770,"right000",1,770
"1526","dsc","27",24,1,"male",86,"z","z",782,"wrong000",1,782
"1527","dsc","27",24,1,"male",87,"m","m",602,"right000",1,602
"1528","dsc","27",24,1,"male",88,"m","m",965,"right000",1,965
"1529","dsc","27",24,1,"male",89,"m","m",681,"right000",1,681
"1530","dsc","27",24,1,"male",90,"z","z",1009,"wrong000",1,1009
"1531","dsc","28",25,1,"female",1,"z","z",1520,"wrong000",1,1520
"1532","dsc","28",25,1,"female",2,"m","z",1263,"right000",0,1263
"1533","dsc","28",25,1,"female",3,"z","z",1080,"wrong000",1,1080
"1534","dsc","28",25,1,"female",4,"z","z",1448,"wrong000",1,1448
"1535","dsc","28",25,1,"female",5,"z","z",1137,"wrong000",1,1137
"1536","dsc","28",25,1,"female",6,"m","m",1479,"right000",1,1479
"1537","dsc","28",25,1,"female",7,"z","z",1055,"wrong000",1,1055
"1538","dsc","28",25,1,"female",8,"z","z",841,"wrong000",1,841
"1539","dsc","28",25,1,"female",9,"m","m",810,"right000",1,810
"1540","dsc","28",25,1,"female",10,"m","m",1077,"right000",1,1077
"1541","dsc","28",25,1,"female",11,"z","z",1814,"wrong000",1,1814
"1542","dsc","28",25,1,"female",12,"z","z",1009,"wrong000",1,1009
"1543","dsc","28",25,1,"female",13,"m","m",1236,"right000",1,1236
"1544","dsc","28",25,1,"female",14,"z","m",1142,"wrong000",0,1142
"1545","dsc","28",25,1,"female",15,"z","z",1324,"wrong000",1,1324
"1546","dsc","28",25,1,"female",16,"m","m",1122,"wrong000",1,1122
"1547","dsc","28",25,1,"female",17,"m","m",2281,"right000",1,2281
"1548","dsc","28",25,1,"female",18,"m","m",497,"right000",1,497
"1549","dsc","28",25,1,"female",19,"z","z",1072,"wrong000",1,1072
"1550","dsc","28",25,1,"female",20,"m","m",1504,"right000",1,1504
"1551","dsc","28",25,1,"female",21,"z","z",1248,"wrong000",1,1248
"1552","dsc","28",25,1,"female",22,"z","z",2321,"wrong000",1,2321
"1553","dsc","28",25,1,"female",23,"z","z",1960,"wrong000",1,1960
"1554","dsc","28",25,1,"female",24,"m","m",1557,"right000",1,1557
"1555","dsc","28",25,1,"female",25,"m","m",850,"right000",1,850
"1556","dsc","28",25,1,"female",26,"z","z",836,"wrong000",1,836
"1557","dsc","28",25,1,"female",27,"z","z",885,"wrong000",1,885
"1558","dsc","28",25,1,"female",28,"m","m",869,"right000",1,869
"1559","dsc","28",25,1,"female",29,"m","m",1517,"right000",1,1517
"1560","dsc","28",25,1,"female",30,"m","z",1332,"right000",0,1332
"1561","dsc","28",25,1,"female",31,"z","z",2146,"wrong000",1,2146
"1562","dsc","28",25,1,"female",32,"z","z",1464,"wrong000",1,1464
"1563","dsc","28",25,1,"female",33,"m","m",1521,"right000",1,1521
"1564","dsc","28",25,1,"female",34,"m","m",959,"right000",1,959
"1565","dsc","28",25,1,"female",35,"z","z",1205,"wrong000",1,1205
"1566","dsc","28",25,1,"female",36,"z","z",1623,"wrong000",1,1623
